Folder: Sharbel_Stuff/mAb_dilution_wasatch_plastic (part 3)

File: 65% Raw + 30% Buffer_data.csv
Wavenumber,Intensities
282.29,5655.0
290.7,5242.33
299.09,4852.67
307.47,4675.33
315.83,4703.0
324.18,4748.0
332.51,4784.0
340.83,4717.0
349.13,4598.0
357.42,4589.0
365.69,4636.0
373.95,4856.33
382.19,5185.67
390.42,5552.33
398.63,5908.0
406.83,6382.33
415.01,5812.67
423.18,5326.0
431.33,4953.67
439.47,4793.0
447.59,4658.33
455.7,4334.67
463.79,4108.33
471.86,3970.33
479.93,3929.67
487.97,3914.0
496.0,3829.67
504.02,3688.33
512.02,3674.33
520.01,3642.33
527.98,3794.67
535.93,4182.67
543.87,4271.33
551.8,4115.67
559.71,3955.33
567.6,3823.0
575.48,3664.0
583.34,3495.33
591.19,3399.33
599.03,3426.33
606.84,3587.67
614.65,5757.67
622.43,12322.33
630.21,4536.33
637.96,3251.67
645.71,2915.0
653.43,2762.0
661.14,2700.67
668.84,2642.67
676.52,2594.67
684.19,2575.67
691.83,2627.67
699.47,2931.33
707.09,2885.67
714.69,2624.67
722.28,2682.0
729.85,3032.0
737.41,4055.33
744.95,4734.67
752.48,5510.33
759.99,6009.33
767.49,5652.33
774.97,5093.0
782.44,5926.33
789.89,8321.33
797.32,9531.33
804.74,6548.0
812.14,4785.0
819.53,3621.0
826.9,3222.33
834.26,3636.33
841.6,4203.33
848.93,3695.67
856.24,3385.67
863.54,3322.67
870.82,3260.67
878.08,3121.0
885.33,3106.0
892.57,3188.33
899.79,3643.33
906.99,3852.33
914.18,3170.33
921.35,2761.33
928.51,2615.67
935.65,2606.0
942.77,2729.0
949.88,2790.33
956.98,2899.33
964.06,3214.67
971.12,3276.67
978.17,4059.67
985.2,6418.33
992.22,12766.67
999.22,55099.0
1006.21,31873.33
1013.18,6823.33
1020.13,5896.67
1027.07,14073.67
1034.0,17084.33
1040.91,7524.67
1047.8,4749.67
1054.68,4197.33
1061.54,4279.0
1068.39,4794.67
1075.22,4627.33
1082.04,4291.67
1088.84,4172.67
1095.62,4217.0
1102.39,3780.67
1109.15,2926.0
1115.88,2537.0
1122.61,2119.67
1129.31,2050.0
1136.01,2217.33
1142.68,2963.0
1149.34,5391.67
1155.99,9164.33
1162.62,5585.33
1169.23,4789.0
1175.83,7219.33
1182.41,11613.33
1188.98,9668.0
1195.53,10277.0
1202.07,10151.0
1208.59,7493.67
1215.1,4968.67
1221.59,3951.0
1228.06,3417.33
1234.52,2870.0
1240.96,2692.33
1247.39,2608.33
1253.8,2542.67
1260.2,2411.0
1266.58,2378.33
1272.95,2365.33
1279.3,2386.67
1285.63,2469.0
1291.95,2709.33
1298.25,2993.0
1304.54,3155.33
1310.81,3313.33
1317.07,3727.33
1323.31,4258.67
1329.54,4345.0
1335.75,3866.33
1341.94,3130.0
1348.12,2667.0
1354.29,2467.67
1360.43,2432.67
1366.57,2426.33
1372.68,2303.67
1378.78,1957.67
1384.87,1561.67
1390.94,1407.33
1397.0,1370.67
1403.04,1344.0
1409.06,1310.0
1415.07,1271.67
1421.06,1240.67
1427.04,1302.33
1433.0,1716.0
1438.94,2563.0
1444.88,3542.33
1450.79,4150.0
1456.69,2932.33
1462.57,1570.67
1468.44,1278.0
1474.3,1166.67
1480.13,1132.67
1485.95,1116.0
1491.76,1259.33
1497.55,1189.67
1503.33,1049.0
1509.09,999.0
1514.83,1009.0
1520.56,1017.33
1526.27,1016.67
1531.97,998.67
1537.65,1025.33
1543.32,1035.33
1548.97,1061.67
1554.61,1135.0
1560.22,1153.0
1565.83,1274.67
1571.42,1572.0
1576.99,2480.33
1582.55,5120.67
1588.09,3710.67
1593.62,3756.33
1599.13,7764.67
1604.63,9404.67
1610.11,4365.0
1615.57,2190.33
1621.02,1657.0
1626.45,1430.33
1631.87,1301.0
1637.27,1197.33
1642.66,1108.33
1648.03,1066.67
1653.39,1050.33
1658.73,1032.67
1664.05,996.33
1669.36,948.0
1674.66,934.0
1679.94,901.0
1685.2,838.0
1690.45,806.33
1695.68,716.0
1700.89,705.0
1706.1,672.0
1711.28,637.33
1716.45,607.33
1721.6,557.67
1726.74,563.33
1731.87,546.67
1736.97,537.0
1742.07,526.0
1747.14,513.0
1752.2,488.33
1757.25,462.0
1762.28,477.0
1767.29,471.0
1772.29,436.67
1777.28,464.33
1782.25,419.0
1787.2,386.0
1792.14,421.33
1797.06,390.0
1801.96,417.33
1806.85,413.0
1811.73,416.33
1816.59,400.0
1821.43,385.67
1826.26,370.67
1831.07,369.33
1835.87,356.67
1840.65,357.0
1845.42,369.67
1850.17,330.33
1854.9,338.0
1859.62,347.67
1864.33,342.67
1869.02,333.0
1873.69,326.33
1878.35,310.33
1882.99,333.0
1887.62,320.0
1892.23,321.67
1893.38,293.67

File: 70% Raw + 30% Buffer_data.csv
Wavenumber,Intensities
282.29,5462.33
290.7,4926.0
299.09,4511.0
307.47,4292.0
315.83,4328.33
324.18,4428.0
332.51,4429.67
340.83,4370.0
349.13,4185.33
357.42,4169.0
365.69,4252.67
373.95,4504.33
382.19,4912.0
390.42,5371.33
398.63,5847.0
406.83,6406.67
415.01,5684.0
423.18,5050.0
431.33,4681.33
439.47,4461.33
447.59,4250.0
455.7,3857.67
463.79,3655.33
471.86,3480.0
479.93,3441.33
487.97,3427.67
496.0,3355.33
504.02,3267.0
512.02,3224.67
520.01,3217.0
527.98,3403.33
535.93,3915.67
543.87,4072.33
551.8,3818.33
559.71,3661.67
567.6,3524.67
575.48,3308.33
583.34,3135.0
591.19,3050.0
599.03,3045.33
606.84,3288.67
614.65,5999.0
622.43,13974.67
630.21,4499.33
637.96,2949.0
645.71,2473.0
653.43,2348.0
661.14,2264.33
668.84,2189.33
676.52,2156.67
684.19,2147.67
691.83,2212.0
699.47,2588.33
707.09,2457.67
714.69,2239.67
722.28,2263.0
729.85,2711.0
737.41,4005.67
744.95,4845.67
752.48,5762.33
759.99,6363.33
767.49,5980.0
774.97,5387.0
782.44,6279.33
789.89,9262.67
797.32,10685.67
804.74,7083.67
812.14,4949.67
819.53,3533.33
826.9,3013.33
834.26,3585.67
841.6,4198.33
848.93,3639.67
856.24,3290.67
863.54,3231.33
870.82,3141.67
878.08,3021.0
885.33,2977.0
892.57,3079.67
899.79,3658.67
906.99,3919.33
914.18,3141.33
921.35,2595.33
928.51,2473.0
935.65,2493.0
942.77,2598.33
949.88,2660.0
956.98,2774.33
964.06,3198.33
971.12,3306.0
978.17,4246.0
985.2,7183.67
992.22,14991.67
999.22,63620.67
1006.21,39583.67
1013.18,7643.33
1020.13,6501.67
1027.07,16559.33
1034.0,20212.0
1040.91,8628.0
1047.8,5150.67
1054.68,4489.0
1061.54,4638.67
1068.39,5200.67
1075.22,5016.0
1082.04,4585.33
1088.84,4466.0
1095.62,4480.33
1102.39,4032.33
1109.15,3016.0
1115.88,2523.0
1122.61,2051.33
1129.31,1917.33
1136.01,2108.67
1142.68,3051.67
1149.34,6060.0
1155.99,10601.0
1162.62,6263.67
1169.23,5278.67
1175.83,8327.67
1182.41,13602.0
1188.98,11319.67
1195.53,12100.67
1202.07,11915.67
1208.59,8572.33
1215.1,5490.33
1221.59,4301.33
1228.06,3613.33
1234.52,3005.33
1240.96,2751.67
1247.39,2691.67
1253.8,2569.33
1260.2,2411.0
1266.58,2369.33
1272.95,2362.0
1279.3,2429.0
1285.63,2523.67
1291.95,2814.67
1298.25,3128.33
1304.54,3374.0
1310.81,3613.33
1317.07,4078.0
1323.31,4694.0
1329.54,4780.0
1335.75,4224.33
1341.94,3291.67
1348.12,2773.67
1354.29,2544.0
1360.43,2541.33
1366.57,2528.33
1372.68,2389.67
1378.78,1940.0
1384.87,1499.67
1390.94,1287.0
1397.0,1233.67
1403.04,1206.33
1409.06,1179.33
1415.07,1092.0
1421.06,1088.33
1427.04,1191.0
1433.0,1716.0
1438.94,2724.0
1444.88,3989.0
1450.79,4705.0
1456.69,3170.33
1462.57,1538.0
1468.44,1173.0
1474.3,1024.67
1480.13,984.67
1485.95,967.0
1491.76,1136.33
1497.55,1093.67
1503.33,920.0
1509.09,870.67
1514.83,895.0
1520.56,890.0
1526.27,846.67
1531.97,888.67
1537.65,892.33
1543.32,921.67
1548.97,970.67
1554.61,1052.67
1560.22,1065.67
1565.83,1215.0
1571.42,1611.0
1576.99,2731.0
1582.55,6004.0
1588.09,4248.67
1593.62,4316.67
1599.13,9277.0
1604.63,11251.33
1610.11,5012.0
1615.57,2367.67
1621.02,1650.33
1626.45,1383.67
1631.87,1218.67
1637.27,1065.67
1642.66,996.0
1648.03,965.67
1653.39,918.67
1658.73,872.0
1664.05,869.67
1669.36,835.33
1674.66,833.0
1679.94,805.33
1685.2,716.33
1690.45,727.67
1695.68,633.0
1700.89,590.0
1706.1,543.0
1711.28,523.0
1716.45,497.33
1721.6,469.33
1726.74,491.0
1731.87,437.67
1736.97,431.33
1742.07,436.33
1747.14,441.67
1752.2,411.33
1757.25,364.33
1762.28,403.33
1767.29,371.0
1772.29,342.67
1777.28,392.67
1782.25,349.33
1787.2,339.0
1792.14,353.0
1797.06,328.33
1801.96,359.33
1806.85,357.0
1811.73,359.33
1816.59,343.0
1821.43,328.0
1826.26,327.0
1831.07,298.33
1835.87,292.33
1840.65,302.67
1845.42,294.0
1850.17,274.67
1854.9,260.67
1859.62,258.0
1864.33,278.33
1869.02,250.33
1873.69,253.0
1878.35,255.67
1882.99,291.33
1887.62,273.33
1892.23,235.33
1893.38,235.33

File: 75% Raw + 25% Buffer_data.csv
Wavenumber,Intensities
282.29,3402.0
290.7,3075.0
299.09,2794.0
307.47,2677.0
315.83,2806.0
324.18,2821.0
332.51,2825.0
340.83,2799.0
349.13,2677.0
357.42,2676.0
365.69,2734.0
373.95,2928.0
382.19,3258.0
390.42,3562.0
398.63,3850.0
406.83,4359.0
415.01,3816.0
423.18,3304.0
431.33,3083.0
439.47,2878.0
447.59,2733.0
455.7,2468.0
463.79,2321.0
471.86,2141.0
479.93,2088.0
487.97,2141.0
496.0,2070.0
504.02,1963.0
512.02,1872.0
520.01,1850.0
527.98,1955.0
535.93,2377.0
543.87,2475.0
551.8,2316.0
559.71,2143.0
567.6,2047.0
575.48,1906.0
583.34,1770.0
591.19,1731.0
599.03,1739.0
606.84,1919.0
614.65,3865.0
622.43,10071.0
630.21,2840.0
637.96,1674.0
645.71,1299.0
653.43,1211.0
661.14,1199.0
668.84,1150.0
676.52,1128.0
684.19,1116.0
691.83,1169.0
699.47,1420.0
707.09,1401.0
714.69,1165.0
722.28,1219.0
729.85,1530.0
737.41,2489.0
744.95,3151.0
752.48,3799.0
759.99,4276.0
767.49,3979.0
774.97,3565.0
782.44,4211.0
789.89,6405.0
797.32,7522.0
804.74,4856.0
812.14,3242.0
819.53,2214.0
826.9,1917.0
834.26,2240.0
841.6,2783.0
848.93,2385.0
856.24,2168.0
863.54,2017.0
870.82,1952.0
878.08,1842.0
885.33,1872.0
892.57,1970.0
899.79,2406.0
906.99,2586.0
914.18,2028.0
921.35,1667.0
928.51,1507.0
935.65,1549.0
942.77,1644.0
949.88,1679.0
956.98,1796.0
964.06,2103.0
971.12,2221.0
978.17,2904.0
985.2,4962.0
992.22,10719.0
999.22,48201.0
1006.21,29164.0
1013.18,5525.0
1020.13,4587.0
1027.07,11813.0
1034.0,14797.0
1040.91,6189.0
1047.8,3622.0
1054.68,3121.0
1061.54,3159.0
1068.39,3660.0
1075.22,3547.0
1082.04,3216.0
1088.84,3106.0
1095.62,3102.0
1102.39,2818.0
1109.15,2073.0
1115.88,1667.0
1122.61,1301.0
1129.31,1245.0
1136.01,1378.0
1142.68,2050.0
1149.34,4290.0
1155.99,7768.0
1162.62,4526.0
1169.23,3725.0
1175.83,5987.0
1182.41,10058.0
1188.98,8174.0
1195.53,8744.0
1202.07,8619.0
1208.59,6231.0
1215.1,3907.0
1221.59,3043.0
1228.06,2537.0
1234.52,1978.0
1240.96,1827.0
1247.39,1777.0
1253.8,1678.0
1260.2,1617.0
1266.58,1570.0
1272.95,1587.0
1279.3,1639.0
1285.63,1705.0
1291.95,1948.0
1298.25,2171.0
1304.54,2362.0
1310.81,2513.0
1317.07,2897.0
1323.31,3400.0
1329.54,3520.0
1335.75,3007.0
1341.94,2297.0
1348.12,1948.0
1354.29,1815.0
1360.43,1769.0
1366.57,1716.0
1372.68,1644.0
1378.78,1337.0
1384.87,979.0
1390.94,794.0
1397.0,763.0
1403.04,752.0
1409.06,699.0
1415.07,687.0
1421.06,714.0
1427.04,748.0
1433.0,1147.0
1438.94,1932.0
1444.88,2935.0
1450.79,3470.0
1456.69,2323.0
1462.57,1101.0
1468.44,706.0
1474.3,664.0
1480.13,638.0
1485.95,581.0
1491.76,771.0
1497.55,695.0
1503.33,585.0
1509.09,520.0
1514.83,577.0
1520.56,517.0
1526.27,531.0
1531.97,565.0
1537.65,539.0
1543.32,535.0
1548.97,638.0
1554.61,687.0
1560.22,691.0
1565.83,793.0
1571.42,1089.0
1576.99,2027.0
1582.55,4592.0
1588.09,3211.0
1593.62,3273.0
1599.13,7134.0
1604.63,8729.0
1610.11,3850.0
1615.57,1664.0
1621.02,1098.0
1626.45,877.0
1631.87,748.0
1637.27,622.0
1642.66,592.0
1648.03,532.0
1653.39,554.0
1658.73,463.0
1664.05,493.0
1669.36,422.0
1674.66,463.0
1679.94,425.0
1685.2,417.0
1690.45,418.0
1695.68,380.0
1700.89,361.0
1706.1,342.0
1711.28,312.0
1716.45,269.0
1721.6,308.0
1726.74,296.0
1731.87,304.0
1736.97,246.0
1742.07,258.0
1747.14,278.0
1752.2,266.0
1757.25,246.0
1762.28,258.0
1767.29,265.0
1772.29,243.0
1777.28,213.0
1782.25,239.0
1787.2,237.0
1792.14,249.0
1797.06,203.0
1801.96,232.0
1806.85,246.0
1811.73,239.0
1816.59,239.0
1821.43,239.0
1826.26,232.0
1831.07,231.0
1835.87,201.0
1840.65,201.0
1845.42,175.0
1850.17,201.0
1854.9,213.0
1859.62,175.0
1864.33,179.0
1869.02,156.0
1873.69,175.0
1878.35,178.0
1882.99,205.0
1887.62,174.0
1892.23,178.0
1893.38,167.0

File: 80% Raw + 20% Buffer_data.csv
Wavenumber,Intensities
282.29,6677.0
290.7,6136.0
299.09,5824.0
307.47,5589.0
315.83,5487.0
324.18,5494.0
332.51,5460.0
340.83,5475.0
349.13,5327.0
357.42,5384.0
365.69,5346.0
373.95,5608.0
382.19,5817.0
390.42,6007.0
398.63,6306.0
406.83,6656.0
415.01,6299.0
423.18,6020.0
431.33,5758.0
439.47,5748.0
447.59,5532.0
455.7,5243.0
463.79,5161.0
471.86,4970.0
479.93,4959.0
487.97,4943.0
496.0,4876.0
504.02,4708.0
512.02,4500.0
520.01,4454.0
527.98,4412.0
535.93,4674.0
543.87,4763.0
551.8,4628.0
559.71,4387.0
567.6,4348.0
575.48,4199.0
583.34,4127.0
591.19,4066.0
599.03,4017.0
606.84,4102.0
614.65,5505.0
622.43,10001.0
630.21,4644.0
637.96,3781.0
645.71,3569.0
653.43,3395.0
661.14,3364.0
668.84,3341.0
676.52,3254.0
684.19,3193.0
691.83,3244.0
699.47,3383.0
707.09,3372.0
714.69,3155.0
722.28,3125.0
729.85,3348.0
737.41,4079.0
744.95,4487.0
752.48,4983.0
759.99,5369.0
767.49,5101.0
774.97,4693.0
782.44,5145.0
789.89,6891.0
797.32,7613.0
804.74,5657.0
812.14,4336.0
819.53,3535.0
826.9,3349.0
834.26,3573.0
841.6,3877.0
848.93,3569.0
856.24,3390.0
863.54,3251.0
870.82,3137.0
878.08,3136.0
885.33,3023.0
892.57,3098.0
899.79,3370.0
906.99,3387.0
914.18,3000.0
921.35,2700.0
928.51,2631.0
935.65,2559.0
942.77,2654.0
949.88,2559.0
956.98,2718.0
964.06,2908.0
971.12,2954.0
978.17,3478.0
985.2,5006.0
992.22,9310.0
999.22,38102.0
1006.21,22641.0
1013.18,5331.0
1020.13,4667.0
1027.07,10123.0
1034.0,12397.0
1040.91,5708.0
1047.8,3850.0
1054.68,3432.0
1061.54,3558.0
1068.39,3816.0
1075.22,3736.0
1082.04,3474.0
1088.84,3383.0
1095.62,3372.0
1102.39,3106.0
1109.15,2646.0
1115.88,2327.0
1122.61,2064.0
1129.31,1982.0
1136.01,2092.0
1142.68,2567.0
1149.34,4131.0
1155.99,6686.0
1162.62,4389.0
1169.23,3782.0
1175.83,5437.0
1182.41,8239.0
1188.98,7134.0
1195.53,7457.0
1202.07,7373.0
1208.59,5570.0
1215.1,3922.0
1221.59,3282.0
1228.06,2890.0
1234.52,2601.0
1240.96,2370.0
1247.39,2384.0
1253.8,2320.0
1260.2,2195.0
1266.58,2170.0
1272.95,2153.0
1279.3,2159.0
1285.63,2172.0
1291.95,2318.0
1298.25,2507.0
1304.54,2618.0
1310.81,2737.0
1317.07,2996.0
1323.31,3302.0
1329.54,3334.0
1335.75,3015.0
1341.94,2479.0
1348.12,2248.0
1354.29,2100.0
1360.43,2073.0
1366.57,2035.0
1372.68,1989.0
1378.78,1701.0
1384.87,1458.0
1390.94,1344.0
1397.0,1299.0
1403.04,1302.0
1409.06,1265.0
1415.07,1226.0
1421.06,1272.0
1427.04,1287.0
1433.0,1519.0
1438.94,2039.0
1444.88,2734.0
1450.79,3121.0
1456.69,2327.0
1462.57,1492.0
1468.44,1211.0
1474.3,1112.0
1480.13,1136.0
1485.95,1044.0
1491.76,1193.0
1497.55,1090.0
1503.33,1006.0
1509.09,1006.0
1514.83,980.0
1520.56,987.0
1526.27,1028.0
1531.97,1025.0
1537.65,1014.0
1543.32,1033.0
1548.97,1105.0
1554.61,1192.0
1560.22,1170.0
1565.83,1226.0
1571.42,1393.0
1576.99,1978.0
1582.55,3575.0
1588.09,2778.0
1593.62,2783.0
1599.13,5182.0
1604.63,6306.0
1610.11,3315.0
1615.57,2039.0
1621.02,1652.0
1626.45,1507.0
1631.87,1450.0
1637.27,1382.0
1642.66,1370.0
1648.03,1390.0
1653.39,1314.0
1658.73,1279.0
1664.05,1264.0
1669.36,1219.0
1674.66,1132.0
1679.94,1109.0
1685.2,979.0
1690.45,987.0
1695.68,858.0
1700.89,786.0
1706.1,748.0
1711.28,673.0
1716.45,596.0
1721.6,631.0
1726.74,619.0
1731.87,554.0
1736.97,493.0
1742.07,537.0
1747.14,513.0
1752.2,490.0
1757.25,463.0
1762.28,444.0
1767.29,459.0
1772.29,437.0
1777.28,353.0
1782.25,395.0
1787.2,382.0
1792.14,393.0
1797.06,397.0
1801.96,361.0
1806.85,379.0
1811.73,361.0
1816.59,387.0
1821.43,346.0
1826.26,327.0
1831.07,364.0
1835.87,323.0
1840.65,319.0
1845.42,319.0
1850.17,319.0
1854.9,300.0
1859.62,312.0
1864.33,323.0
1869.02,269.0
1873.69,293.0
1878.35,269.0
1882.99,297.0
1887.62,288.0
1892.23,285.0
1893.38,262.0

File: 85% Raw + 15% Buffer_data.csv
Wavenumber,Intensities
282.29,6481.0
290.7,6048.0
299.09,5661.0
307.47,5487.0
315.83,5400.0
324.18,5418.0
332.51,5308.0
340.83,5303.0
349.13,5320.0
357.42,5201.0
365.69,5274.0
373.95,5445.0
382.19,5684.0
390.42,5886.0
398.63,6155.0
406.83,6470.0
415.01,6185.0
423.18,5829.0
431.33,5668.0
439.47,5585.0
447.59,5421.0
455.7,5179.0
463.79,5055.0
471.86,4909.0
479.93,4879.0
487.97,4892.0
496.0,4758.0
504.02,4556.0
512.02,4465.0
520.01,4344.0
527.98,4351.0
535.93,4640.0
543.87,4697.0
551.8,4507.0
559.71,4292.0
567.6,4306.0
575.48,4139.0
583.34,3991.0
591.19,3981.0
599.03,3903.0
606.84,4007.0
614.65,5321.0
622.43,9177.0
630.21,4435.0
637.96,3717.0
645.71,3497.0
653.43,3421.0
661.14,3345.0
668.84,3246.0
676.52,3220.0
684.19,3129.0
691.83,3212.0
699.47,3383.0
707.09,3319.0
714.69,3162.0
722.28,3125.0
729.85,3333.0
737.41,3928.0
744.95,4317.0
752.48,4759.0
759.99,5096.0
767.49,4868.0
774.97,4439.0
782.44,4864.0
789.89,6417.0
797.32,7089.0
804.74,5228.0
812.14,4222.0
819.53,3471.0
826.9,3204.0
834.26,3451.0
841.6,3744.0
848.93,3417.0
856.24,3269.0
863.54,3114.0
870.82,3053.0
878.08,3015.0
885.33,2916.0
892.57,2935.0
899.79,3249.0
906.99,3284.0
914.18,2905.0
921.35,2616.0
928.51,2585.0
935.65,2509.0
942.77,2536.0
949.88,2559.0
956.98,2650.0
964.06,2791.0
971.12,2836.0
978.17,3223.0
985.2,4632.0
992.22,8467.0
999.22,34259.0
1006.21,19759.0
1013.18,4902.0
1020.13,4363.0
1027.07,9197.0
1034.0,10897.0
1040.91,5224.0
1047.8,3550.0
1054.68,3269.0
1061.54,3300.0
1068.39,3588.0
1075.22,3505.0
1082.04,3246.0
1088.84,3216.0
1095.62,3186.0
1102.39,3000.0
1109.15,2498.0
1115.88,2206.0
1122.61,1984.0
1129.31,1929.0
1136.01,1978.0
1142.68,2407.0
1149.34,3876.0
1155.99,6044.0
1162.62,3964.0
1169.23,3478.0
1175.83,4962.0
1182.41,7476.0
1188.98,6424.0
1195.53,6785.0
1202.07,6701.0
1208.59,5099.0
1215.1,3668.0
1221.59,3081.0
1228.06,2704.0
1234.52,2434.0
1240.96,2290.0
1247.39,2274.0
1253.8,2172.0
1260.2,2145.0
1266.58,2048.0
1272.95,2107.0
1279.3,2072.0
1285.63,2085.0
1291.95,2233.0
1298.25,2312.0
1304.54,2426.0
1310.81,2612.0
1317.07,2822.0
1323.31,3089.0
1329.54,3106.0
1335.75,2829.0
1341.94,2343.0
1348.12,2073.0
1354.29,1990.0
1360.43,1917.0
1366.57,2004.0
1372.68,1837.0
1378.78,1659.0
1384.87,1423.0
1390.94,1322.0
1397.0,1272.0
1403.04,1272.0
1409.06,1257.0
1415.07,1247.0
1421.06,1258.0
1427.04,1287.0
1433.0,1458.0
1438.94,1940.0
1444.88,2518.0
1450.79,2893.0
1456.69,2130.0
1462.57,1401.0
1468.44,1181.0
1474.3,1139.0
1480.13,1128.0
1485.95,1078.0
1491.76,1109.0
1497.55,1098.0
1503.33,995.0
1509.09,953.0
1514.83,1006.0
1520.56,976.0
1526.27,998.0
1531.97,994.0
1537.65,1044.0
1543.32,1018.0
1548.97,1097.0
1554.61,1151.0
1560.22,1102.0
1565.83,1203.0
1571.42,1351.0
1576.99,1856.0
1582.55,3324.0
1588.09,2542.0
1593.62,2593.0
1599.13,4818.0
1604.63,5604.0
1610.11,3007.0
1615.57,1918.0
1621.02,1576.0
1626.45,1488.0
1631.87,1412.0
1637.27,1389.0
1642.66,1344.0
1648.03,1326.0
1653.39,1283.0
1658.73,1239.0
1664.05,1228.0
1669.36,1174.0
1674.66,1155.0
1679.94,1029.0
1685.2,968.0
1690.45,923.0
1695.68,816.0
1700.89,740.0
1706.1,707.0
1711.28,665.0
1716.45,634.0
1721.6,608.0
1726.74,596.0
1731.87,562.0
1736.97,501.0
1742.07,501.0
1747.14,551.0
1752.2,471.0
1757.25,463.0
1762.28,429.0
1767.29,459.0
1772.29,403.0
1777.28,410.0
1782.25,414.0
1787.2,393.0
1792.14,389.0
1797.06,378.0
1801.96,353.0
1806.85,364.0
1811.73,334.0
1816.59,345.0
1821.43,357.0
1826.26,342.0
1831.07,326.0
1835.87,326.0
1840.65,311.0
1845.42,334.0
1850.17,365.0
1854.9,331.0
1859.62,300.0
1864.33,304.0
1869.02,292.0
1873.69,277.0
1878.35,243.0
1882.99,319.0
1887.62,284.0
1892.23,283.0
1893.38,269.0

File: 90% Raw + 10% Buffer_data.csv
Wavenumber,Intensities
282.29,6819.0
290.7,6284.0
299.09,5893.0
307.47,5646.0
315.83,5563.0
324.18,5581.0
332.51,5597.0
340.83,5517.0
349.13,5437.0
357.42,5403.0
365.69,5403.0
373.95,5643.0
382.19,5939.0
390.42,6235.0
398.63,6546.0
406.83,6926.0
415.01,6428.0
423.18,6068.0
431.33,5889.0
439.47,5744.0
447.59,5532.0
455.7,5323.0
463.79,5142.0
471.86,4947.0
479.93,4909.0
487.97,4928.0
496.0,4786.0
504.02,4682.0
512.02,4456.0
520.01,4412.0
527.98,4492.0
535.93,4785.0
543.87,4886.0
551.8,4772.0
559.71,4535.0
567.6,4378.0
575.48,4294.0
583.34,4074.0
591.19,4078.0
599.03,4062.0
606.84,4182.0
614.65,5775.0
622.43,10867.0
630.21,4773.0
637.96,3789.0
645.71,3535.0
653.43,3429.0
661.14,3364.0
668.84,3303.0
676.52,3178.0
684.19,3216.0
691.83,3250.0
699.47,3421.0
707.09,3437.0
714.69,3109.0
722.28,3190.0
729.85,3436.0
737.41,4209.0
744.95,4696.0
752.48,5416.0
759.99,5760.0
767.49,5418.0
774.97,5035.0
782.44,5555.0
789.89,7575.0
797.32,8452.0
804.74,6071.0
812.14,4605.0
819.53,3759.0
826.9,3459.0
834.26,3755.0
841.6,4138.0
848.93,3706.0
856.24,3534.0
863.54,3387.0
870.82,3300.0
878.08,3281.0
885.33,3125.0
892.57,3208.0
899.79,3552.0
906.99,3698.0
914.18,3205.0
921.35,2818.0
928.51,2718.0
935.65,2718.0
942.77,2771.0
949.88,2799.0
956.98,2889.0
964.06,3132.0
971.12,3132.0
978.17,3717.0
985.2,5604.0
992.22,10597.0
999.22,44264.0
1006.21,25211.0
1013.18,5901.0
1020.13,5141.0
1027.07,11653.0
1034.0,13754.0
1040.91,6397.0
1047.8,4214.0
1054.68,3717.0
1061.54,3858.0
1068.39,4249.0
1075.22,4086.0
1082.04,3823.0
1088.84,3721.0
1095.62,3657.0
1102.39,3402.0
1109.15,2775.0
1115.88,2479.0
1122.61,2178.0
1129.31,2088.0
1136.01,2202.0
1142.68,2719.0
1149.34,4700.0
1155.99,7442.0
1162.62,4750.0
1169.23,4192.0
1175.83,6151.0
1182.41,9393.0
1188.98,7859.0
1195.53,8429.0
1202.07,8444.0
1208.59,6227.0
1215.1,4382.0
1221.59,3521.0
1228.06,3133.0
1234.52,2738.0
1240.96,2628.0
1247.39,2502.0
1253.8,2506.0
1260.2,2362.0
1266.58,2318.0
1272.95,2358.0
1279.3,2311.0
1285.63,2347.0
1291.95,2498.0
1298.25,2737.0
1304.54,2863.0
1310.81,3003.0
1317.07,3368.0
1323.31,3624.0
1329.54,3725.0
1335.75,3353.0
1341.94,2745.0
1348.12,2445.0
1354.29,2235.0
1360.43,2251.0
1366.57,2232.0
1372.68,2133.0
1378.78,1834.0
1384.87,1594.0
1390.94,1454.0
1397.0,1397.0
1403.04,1363.0
1409.06,1307.0
1415.07,1306.0
1421.06,1279.0
1427.04,1321.0
1433.0,1606.0
1438.94,2232.0
1444.88,3000.0
1450.79,3474.0
1456.69,2540.0
1462.57,1580.0
1468.44,1306.0
1474.3,1219.0
1480.13,1177.0
1485.95,1120.0
1491.76,1238.0
1497.55,1120.0
1503.33,1056.0
1509.09,991.0
1514.83,1044.0
1520.56,999.0
1526.27,1047.0
1531.97,1044.0
1537.65,1060.0
1543.32,1075.0
1548.97,1108.0
1554.61,1215.0
1560.22,1189.0
1565.83,1237.0
1571.42,1511.0
1576.99,2177.0
1582.55,4089.0
1588.09,3062.0
1593.62,3124.0
1599.13,5999.0
1604.63,7179.0
1610.11,3653.0
1615.57,2153.0
1621.02,1694.0
1626.45,1568.0
1631.87,1495.0
1637.27,1435.0
1642.66,1359.0
1648.03,1360.0
1653.39,1297.0
1658.73,1291.0
1664.05,1245.0
1669.36,1174.0
1674.66,1211.0
1679.94,1105.0
1685.2,987.0
1690.45,945.0
1695.68,873.0
1700.89,809.0
1706.1,737.0
1711.28,684.0
1716.45,618.0
1721.6,627.0
1726.74,622.0
1731.87,573.0
1736.97,527.0
1742.07,520.0
1747.14,551.0
1752.2,520.0
1757.25,497.0
1762.28,475.0
1767.29,486.0
1772.29,410.0
1777.28,391.0
1782.25,410.0
1787.2,423.0
1792.14,397.0
1797.06,389.0
1801.96,384.0
1806.85,410.0
1811.73,353.0
1816.59,345.0
1821.43,342.0
1826.26,353.0
1831.07,357.0
1835.87,338.0
1840.65,353.0
1845.42,342.0
1850.17,372.0
1854.9,369.0
1859.62,331.0
1864.33,293.0
1869.02,277.0
1873.69,304.0
1878.35,299.0
1882.99,285.0
1887.62,300.0
1892.23,307.0
1893.38,277.0

File: 95% Raw + 5% Buffer_data.csv
Wavenumber,Intensities
282.29,6079.0
290.7,5593.0
299.09,5262.0
307.47,5130.0
315.83,5039.0
324.18,5057.0
332.51,5035.0
340.83,5031.0
349.13,4902.0
357.42,4848.0
365.69,4982.0
373.95,5103.0
382.19,5399.0
390.42,5563.0
398.63,5877.0
406.83,6224.0
415.01,5847.0
423.18,5498.0
431.33,5247.0
439.47,5258.0
447.59,5030.0
455.7,4856.0
463.79,4660.0
471.86,4506.0
479.93,4477.0
487.97,4501.0
496.0,4365.0
504.02,4184.0
512.02,4052.0
520.01,4033.0
527.98,4059.0
535.93,4401.0
543.87,4419.0
551.8,4260.0
559.71,4057.0
567.6,3994.0
575.48,3812.0
583.34,3721.0
591.19,3660.0
599.03,3713.0
606.84,3723.0
614.65,5205.0
622.43,9678.0
630.21,4295.0
637.96,3386.0
645.71,3224.0
653.43,3045.0
661.14,3003.0
668.84,2965.0
676.52,2882.0
684.19,2901.0
691.83,2863.0
699.47,3091.0
707.09,3040.0
714.69,2847.0
722.28,2894.0
729.85,3121.0
737.41,3825.0
744.95,4138.0
752.48,4813.0
759.99,5160.0
767.49,4875.0
774.97,4484.0
782.44,4967.0
789.89,6755.0
797.32,7510.0
804.74,5479.0
812.14,4184.0
819.53,3361.0
826.9,3140.0
834.26,3356.0
841.6,3713.0
848.93,3387.0
856.24,3200.0
863.54,3068.0
870.82,2947.0
878.08,2916.0
885.33,2897.0
892.57,2867.0
899.79,3241.0
906.99,3292.0
914.18,2901.0
921.35,2563.0
928.51,2445.0
935.65,2483.0
942.77,2570.0
949.88,2514.0
956.98,2619.0
964.06,2794.0
971.12,2881.0
978.17,3377.0
985.2,4993.0
992.22,9466.0
999.22,39271.0
1006.21,22299.0
1013.18,5286.0
1020.13,4591.0
1027.07,10370.0
1034.0,12211.0
1040.91,5699.0
1047.8,3770.0
1054.68,3360.0
1061.54,3516.0
1068.39,3797.0
1075.22,3664.0
1082.04,3497.0
1088.84,3372.0
1095.62,3387.0
1102.39,3070.0
1109.15,2519.0
1115.88,2278.0
1122.61,2026.0
1129.31,1898.0
1136.01,2024.0
1142.68,2529.0
1149.34,4150.0
1155.99,6720.0
1162.62,4275.0
1169.23,3718.0
1175.83,5448.0
1182.41,8304.0
1188.98,7138.0
1195.53,7571.0
1202.07,7487.0
1208.59,5566.0
1215.1,3873.0
1221.59,3252.0
1228.06,2814.0
1234.52,2491.0
1240.96,2389.0
1247.39,2305.0
1253.8,2225.0
1260.2,2145.0
1266.58,2098.0
1272.95,2081.0
1279.3,2117.0
1285.63,2172.0
1291.95,2259.0
1298.25,2452.0
1304.54,2589.0
1310.81,2730.0
1317.07,2962.0
1323.31,3374.0
1329.54,3353.0
1335.75,3011.0
1341.94,2517.0
1348.12,2223.0
1354.29,2104.0
1360.43,2048.0
1366.57,2035.0
1372.68,1906.0
1378.78,1697.0
1384.87,1458.0
1390.94,1352.0
1397.0,1284.0
1403.04,1261.0
1409.06,1219.0
1415.07,1183.0
1421.06,1238.0
1427.04,1215.0
1433.0,1485.0
1438.94,2115.0
1444.88,2730.0
1450.79,3159.0
1456.69,2300.0
1462.57,1405.0
1468.44,1211.0
1474.3,1086.0
1480.13,1101.0
1485.95,1037.0
1491.76,1157.0
1497.55,1065.0
1503.33,969.0
1509.09,946.0
1514.83,961.0
1520.56,953.0
1526.27,979.0
1531.97,960.0
1537.65,984.0
1543.32,991.0
1548.97,1040.0
1554.61,1139.0
1560.22,1083.0
1565.83,1188.0
1571.42,1374.0
1576.99,1967.0
1582.55,3654.0
1588.09,2766.0
1593.62,2862.0
1599.13,5403.0
1604.63,6500.0
1610.11,3292.0
1615.57,1944.0
1621.02,1557.0
1626.45,1427.0
1631.87,1298.0
1637.27,1306.0
1642.66,1241.0
1648.03,1191.0
1653.39,1189.0
1658.73,1146.0
1664.05,1112.0
1669.36,1086.0
1674.66,1071.0
1679.94,1010.0
1685.2,867.0
1690.45,828.0
1695.68,797.0
1700.89,706.0
1706.1,688.0
1711.28,600.0
1716.45,603.0
1721.6,570.0
1726.74,573.0
1731.87,551.0
1736.97,516.0
1742.07,475.0
1747.14,536.0
1752.2,497.0
1757.25,436.0
1762.28,444.0
1767.29,406.0
1772.29,410.0
1777.28,395.0
1782.25,410.0
1787.2,370.0
1792.14,382.0
1797.06,370.0
1801.96,336.0
1806.85,398.0
1811.73,383.0
1816.59,322.0
1821.43,342.0
1826.26,363.0
1831.07,358.0
1835.87,334.0
1840.65,330.0
1845.42,334.0
1850.17,365.0
1854.9,315.0
1859.62,289.0
1864.33,289.0
1869.02,247.0
1873.69,293.0
1878.35,292.0
1882.99,285.0
1887.62,271.0
1892.23,307.0
1893.38,273.0