Folder: Sharbel_Stuff/mAb_dilution_wasatch_plastic (part 2)

File: 35% Raw +65% Buffer_data.csv
Wavenumber,Intensities
282.29,3432.0
290.7,3162.67
299.09,2964.33
307.47,2855.33
315.83,2828.67
324.18,2882.67
332.51,2882.0
340.83,2852.67
349.13,2798.0
357.42,2757.67
365.69,2798.33
373.95,2915.0
382.19,3103.67
390.42,3328.67
398.63,3527.33
406.83,3718.67
415.01,3456.33
423.18,3177.0
431.33,3045.0
439.47,2934.0
447.59,2860.0
455.7,2666.33
463.79,2549.33
471.86,2444.0
479.93,2439.0
487.97,2445.33
496.0,2388.33
504.02,2271.0
512.02,2220.0
520.01,2185.67
527.98,2224.0
535.93,2446.33
543.87,2475.33
551.8,2371.67
559.71,2311.33
567.6,2224.67
575.48,2093.33
583.34,2030.0
591.19,2002.33
599.03,2008.67
606.84,2076.67
614.65,3207.0
622.43,6764.67
630.21,2540.33
637.96,1883.33
645.71,1691.0
653.43,1616.67
661.14,1556.67
668.84,1545.33
676.52,1525.33
684.19,1482.0
691.83,1506.0
699.47,1712.67
707.09,1635.33
714.69,1512.33
722.28,1540.33
729.85,1721.0
737.41,2252.67
744.95,2604.33
752.48,3018.67
759.99,3271.67
767.49,3135.0
774.97,2845.67
782.44,3255.33
789.89,4541.0
797.32,5152.67
804.74,3599.67
812.14,2607.0
819.53,2017.67
826.9,1750.33
834.26,1988.33
841.6,2274.33
848.93,1994.67
856.24,1824.33
863.54,1806.0
870.82,1728.0
878.08,1699.67
885.33,1707.33
892.57,1718.67
899.79,1953.67
906.99,2030.0
914.18,1702.67
921.35,1459.0
928.51,1394.33
935.65,1395.67
942.77,1442.67
949.88,1470.33
956.98,1512.33
964.06,1681.67
971.12,1782.0
978.17,2175.67
985.2,3407.0
992.22,6779.33
999.22,29480.33
1006.21,17486.0
1013.18,3641.33
1020.13,3094.33
1027.07,7470.0
1034.0,9252.67
1040.91,4045.33
1047.8,2524.67
1054.68,2248.0
1061.54,2255.33
1068.39,2512.67
1075.22,2431.33
1082.04,2249.0
1088.84,2157.67
1095.62,2186.0
1102.39,1988.33
1109.15,1550.33
1115.88,1342.33
1122.61,1117.33
1129.31,1064.33
1136.01,1161.67
1142.68,1536.33
1149.34,2833.67
1155.99,4830.67
1162.62,3000.67
1169.23,2523.67
1175.83,3770.33
1182.41,6130.67
1188.98,5172.33
1195.53,5496.67
1202.07,5420.33
1208.59,3995.67
1215.1,2617.0
1221.59,2101.67
1228.06,1804.0
1234.52,1529.33
1240.96,1427.67
1247.39,1388.33
1253.8,1316.33
1260.2,1260.67
1266.58,1252.67
1272.95,1225.0
1279.3,1268.67
1285.63,1285.67
1291.95,1413.33
1298.25,1540.0
1304.54,1660.67
1310.81,1724.67
1317.07,1960.33
1323.31,2205.67
1329.54,2233.67
1335.75,2007.0
1341.94,1614.67
1348.12,1377.33
1354.29,1284.67
1360.43,1270.33
1366.57,1264.33
1372.68,1172.0
1378.78,1008.33
1384.87,820.0
1390.94,702.33
1397.0,698.67
1403.04,698.67
1409.06,682.0
1415.07,645.33
1421.06,634.0
1427.04,663.0
1433.0,879.67
1438.94,1296.33
1444.88,1807.33
1450.79,2164.67
1456.69,1535.0
1462.57,797.33
1468.44,658.0
1474.3,595.67
1480.13,570.67
1485.95,598.33
1491.76,637.67
1497.55,614.0
1503.33,553.0
1509.09,505.0
1514.83,524.0
1520.56,542.67
1526.27,542.0
1531.97,549.33
1537.65,534.0
1543.32,548.33
1548.97,554.0
1554.61,646.33
1560.22,612.33
1565.83,683.67
1571.42,820.0
1576.99,1298.67
1582.55,2680.67
1588.09,1956.67
1593.62,1956.67
1599.13,3980.0
1604.63,4818.0
1610.11,2327.33
1615.57,1199.33
1621.02,909.0
1626.45,805.0
1631.87,742.67
1637.27,676.0
1642.66,640.33
1648.03,620.0
1653.39,624.0
1658.73,596.33
1664.05,572.33
1669.36,531.67
1674.66,558.0
1679.94,495.0
1685.2,460.67
1690.45,458.33
1695.68,392.33
1700.89,382.67
1706.1,348.0
1711.28,320.33
1716.45,335.33
1721.6,287.33
1726.74,305.0
1731.87,287.67
1736.97,259.33
1742.07,237.67
1747.14,283.33
1752.2,242.67
1757.25,213.67
1762.28,238.67
1767.29,233.0
1772.29,220.0
1777.28,222.67
1782.25,192.33
1787.2,199.67
1792.14,190.0
1797.06,184.0
1801.96,222.33
1806.85,215.33
1811.73,220.33
1816.59,202.33
1821.43,205.0
1826.26,193.67
1831.07,179.33
1835.87,186.0
1840.65,190.0
1845.42,191.33
1850.17,164.67
1854.9,169.33
1859.62,171.0
1864.33,158.0
1869.02,153.33
1873.69,152.0
1878.35,148.0
1882.99,171.0
1887.62,159.33
1892.23,150.67
1893.38,153.0

File: 40% Raw + 60% Buffer_data.csv
Wavenumber,Intensities
282.29,1759.0
290.7,1641.33
299.09,1541.67
307.47,1477.0
315.83,1439.0
324.18,1469.0
332.51,1472.0
340.83,1458.0
349.13,1436.33
357.42,1424.67
365.69,1435.33
373.95,1493.67
382.19,1559.33
390.42,1644.0
398.63,1757.67
406.83,1821.33
415.01,1751.67
423.18,1615.0
431.33,1573.0
439.47,1496.0
447.59,1497.0
455.7,1419.67
463.79,1343.0
471.86,1311.33
479.93,1322.67
487.97,1290.0
496.0,1283.67
504.02,1205.0
512.02,1208.67
520.01,1142.67
527.98,1188.33
535.93,1264.33
543.87,1285.33
551.8,1244.0
559.71,1195.0
567.6,1173.0
575.48,1103.67
583.34,1072.0
591.19,1065.67
599.03,1074.67
606.84,1095.67
614.65,1503.33
622.43,2878.0
630.21,1258.0
637.96,1001.33
645.71,929.33
653.43,897.67
661.14,867.0
668.84,850.33
676.52,831.67
684.19,839.33
691.83,828.67
699.47,883.33
707.09,879.67
714.69,845.33
722.28,838.0
729.85,892.0
737.41,1093.67
744.95,1265.67
752.48,1408.0
759.99,1528.67
767.49,1451.67
774.97,1348.0
782.44,1490.0
789.89,1997.0
797.32,2275.67
804.74,1629.0
812.14,1254.0
819.53,994.67
826.9,891.0
834.26,982.33
841.6,1074.67
848.93,984.67
856.24,922.67
863.54,890.0
870.82,862.33
878.08,869.67
885.33,817.67
892.57,835.33
899.79,939.0
906.99,955.33
914.18,845.67
921.35,729.0
928.51,693.0
935.65,708.67
942.77,703.67
949.88,689.33
956.98,740.33
964.06,791.0
971.12,835.33
978.17,973.33
985.2,1497.33
992.22,2797.0
999.22,11792.0
1006.21,7181.0
1013.18,1559.33
1020.13,1374.67
1027.07,3045.33
1034.0,3761.33
1040.91,1703.67
1047.8,1125.0
1054.68,968.33
1061.54,1014.0
1068.39,1098.67
1075.22,1074.67
1082.04,998.67
1088.84,971.67
1095.62,975.67
1102.39,907.33
1109.15,691.0
1115.88,648.0
1122.61,539.0
1129.31,535.33
1136.01,559.33
1142.68,724.0
1149.34,1192.33
1155.99,1972.0
1162.62,1255.33
1169.23,1106.0
1175.83,1570.33
1182.41,2487.0
1188.98,2123.67
1195.53,2250.33
1202.07,2277.0
1208.59,1675.67
1215.1,1120.33
1221.59,921.0
1228.06,825.33
1234.52,704.67
1240.96,660.67
1247.39,655.33
1253.8,616.33
1260.2,603.67
1266.58,599.67
1272.95,578.67
1279.3,593.0
1285.63,603.67
1291.95,654.0
1298.25,711.0
1304.54,754.0
1310.81,793.67
1317.07,835.33
1323.31,956.67
1329.54,973.33
1335.75,888.33
1341.94,717.67
1348.12,626.67
1354.29,586.0
1360.43,588.67
1366.57,588.67
1372.68,569.33
1378.78,473.33
1384.87,406.0
1390.94,357.0
1397.0,351.67
1403.04,355.67
1409.06,350.67
1415.07,320.33
1421.06,346.67
1427.04,324.0
1433.0,441.67
1438.94,577.33
1444.88,774.33
1450.79,885.0
1456.69,647.67
1462.57,387.33
1468.44,349.0
1474.3,322.33
1480.13,305.0
1485.95,311.0
1491.76,309.67
1497.55,300.0
1503.33,287.33
1509.09,258.33
1514.83,272.0
1520.56,301.0
1526.27,291.33
1531.97,310.0
1537.65,281.0
1543.32,295.0
1548.97,325.33
1554.61,330.0
1560.22,330.33
1565.83,357.0
1571.42,412.67
1576.99,602.33
1582.55,1067.0
1588.09,854.33
1593.62,820.0
1599.13,1605.67
1604.63,1938.67
1610.11,1005.0
1615.57,577.0
1621.02,480.0
1626.45,427.67
1631.87,411.0
1637.27,400.0
1642.66,368.0
1648.03,362.0
1653.39,373.0
1658.73,354.67
1664.05,333.0
1669.36,326.67
1674.66,327.67
1679.94,305.0
1685.2,253.33
1690.45,280.0
1695.68,215.33
1700.89,220.67
1706.1,207.33
1711.28,200.33
1716.45,187.0
1721.6,167.0
1726.74,189.67
1731.87,172.33
1736.97,147.0
1742.07,133.67
1747.14,176.33
1752.2,135.33
1757.25,124.0
1762.28,162.67
1767.29,140.33
1772.29,119.0
1777.28,145.67
1782.25,102.67
1787.2,106.33
1792.14,120.0
1797.06,105.33
1801.96,135.33
1806.85,119.0
1811.73,137.0
1816.59,133.0
1821.43,120.33
1826.26,109.0
1831.07,112.33
1835.87,113.67
1840.65,121.67
1845.42,118.0
1850.17,94.67
1854.9,105.0
1859.62,102.0
1864.33,113.67
1869.02,97.67
1873.69,96.0
1878.35,88.67
1882.99,120.33
1887.62,120.33
1892.23,105.0
1893.38,87.33

File: 45% Raw + 55% Buffer_data.csv
Wavenumber,Intensities
282.29,6745.67
290.7,6241.0
299.09,5866.33
307.47,5659.0
315.83,5604.0
324.18,5639.33
332.51,5615.67
340.83,5584.67
349.13,5493.67
357.42,5475.0
365.69,5561.33
373.95,5702.0
382.19,6003.0
390.42,6282.67
398.63,6586.33
406.83,7023.0
415.01,6563.0
423.18,6172.67
431.33,5886.67
439.47,5782.33
447.59,5583.67
455.7,5347.0
463.79,5161.67
471.86,5021.67
479.93,4948.67
487.97,4943.67
496.0,4826.0
504.02,4614.67
512.02,4538.67
520.01,4474.0
527.98,4536.33
535.93,4852.0
543.87,4939.0
551.8,4743.67
559.71,4650.0
567.6,4453.0
575.48,4292.0
583.34,4166.0
591.19,4080.33
599.03,4054.0
606.84,4204.0
614.65,5936.0
622.43,11114.67
630.21,4842.33
637.96,3821.33
645.71,3557.67
653.43,3432.67
661.14,3359.0
668.84,3303.0
676.52,3232.33
684.19,3236.67
691.83,3227.67
699.47,3472.0
707.09,3430.0
714.69,3207.0
722.28,3177.0
729.85,3479.33
737.41,4286.67
744.95,4876.33
752.48,5499.0
759.99,5857.33
767.49,5579.0
774.97,5156.33
782.44,5724.67
789.89,7725.0
797.32,8684.67
804.74,6238.33
812.14,4826.67
819.53,3823.33
826.9,3464.33
834.26,3799.67
841.6,4198.0
848.93,3794.33
856.24,3528.33
863.54,3463.0
870.82,3402.33
878.08,3279.33
885.33,3225.0
892.57,3256.67
899.79,3609.0
906.99,3711.67
914.18,3232.33
921.35,2836.0
928.51,2705.67
935.65,2761.33
942.77,2808.67
949.88,2810.67
956.98,2896.67
964.06,3160.33
971.12,3203.33
978.17,3847.67
985.2,5752.0
992.22,10951.67
999.22,45739.67
1006.21,26362.67
1013.18,5999.33
1020.13,5232.0
1027.07,11928.67
1034.0,14330.67
1040.91,6620.67
1047.8,4331.0
1054.68,3862.67
1061.54,3924.33
1068.39,4302.33
1075.22,4193.33
1082.04,3923.33
1088.84,3737.0
1095.62,3802.0
1102.39,3503.33
1109.15,2821.33
1115.88,2510.67
1122.61,2173.0
1129.31,2107.33
1136.01,2198.67
1142.68,2811.0
1149.34,4789.0
1155.99,7711.67
1162.62,4934.33
1169.23,4287.67
1175.83,6242.33
1182.41,9703.67
1188.98,8169.67
1195.53,8733.0
1202.07,8621.33
1208.59,6415.33
1215.1,4392.67
1221.59,3595.33
1228.06,3147.67
1234.52,2730.67
1240.96,2592.0
1247.39,2504.67
1253.8,2416.33
1260.2,2344.0
1266.58,2312.33
1272.95,2278.33
1279.3,2334.33
1285.63,2366.33
1291.95,2572.67
1298.25,2775.33
1304.54,2908.33
1310.81,3035.0
1317.07,3360.33
1323.31,3724.67
1329.54,3785.67
1335.75,3417.0
1341.94,2809.67
1348.12,2449.33
1354.29,2300.67
1360.43,2279.33
1366.57,2212.33
1372.68,2130.0
1378.78,1874.33
1384.87,1550.33
1390.94,1432.67
1397.0,1413.33
1403.04,1360.67
1409.06,1346.33
1415.07,1316.33
1421.06,1296.0
1427.04,1322.67
1433.0,1657.0
1438.94,2296.33
1444.88,3102.0
1450.79,3537.67
1456.69,2590.67
1462.57,1530.33
1468.44,1303.33
1474.3,1207.0
1480.13,1153.0
1485.95,1163.0
1491.76,1271.67
1497.55,1241.67
1503.33,1103.33
1509.09,1069.33
1514.83,1091.0
1520.56,1068.33
1526.27,1072.0
1531.97,1082.0
1537.65,1102.33
1543.32,1093.33
1548.97,1152.67
1554.61,1229.67
1560.22,1198.0
1565.83,1306.33
1571.42,1545.0
1576.99,2266.67
1582.55,4288.0
1588.09,3199.33
1593.62,3243.33
1599.13,6315.0
1604.63,7557.0
1610.11,3751.33
1615.57,2111.0
1621.02,1719.0
1626.45,1591.0
1631.87,1492.33
1637.27,1403.67
1642.66,1327.67
1648.03,1287.0
1653.39,1269.33
1658.73,1222.33
1664.05,1164.67
1669.36,1152.67
1674.66,1111.0
1679.94,1053.33
1685.2,968.67
1690.45,954.67
1695.68,834.33
1700.89,801.67
1706.1,716.0
1711.28,677.67
1716.45,678.33
1721.6,611.67
1726.74,619.0
1731.87,574.67
1736.97,563.33
1742.07,508.33
1747.14,537.0
1752.2,489.67
1757.25,455.33
1762.28,479.33
1767.29,468.33
1772.29,444.33
1777.28,463.33
1782.25,424.33
1787.2,425.0
1792.14,417.67
1797.06,391.67
1801.96,415.0
1806.85,409.33
1811.73,419.0
1816.59,382.33
1821.43,368.33
1826.26,378.33
1831.07,349.0
1835.87,342.67
1840.65,354.33
1845.42,335.67
1850.17,327.0
1854.9,306.33
1859.62,334.0
1864.33,344.33
1869.02,301.33
1873.69,319.0
1878.35,302.33
1882.99,319.0
1887.62,313.67
1892.23,311.33
1893.38,301.0

File: 50% Raw + 50% Buffer_data.csv
Wavenumber,Intensities
282.29,6571.0
290.7,6096.67
299.09,5652.33
307.47,5416.0
315.83,5377.67
324.18,5420.33
332.51,5447.33
340.83,5380.33
349.13,5311.33
357.42,5271.33
365.69,5272.67
373.95,5542.67
382.19,5822.0
390.42,6188.67
398.63,6527.0
406.83,6925.33
415.01,6417.67
423.18,5991.33
431.33,5722.0
439.47,5557.67
447.59,5363.33
455.7,5088.67
463.79,4867.67
471.86,4739.67
479.93,4676.67
487.97,4656.33
496.0,4533.67
504.02,4366.67
512.02,4304.33
520.01,4248.67
527.98,4319.67
535.93,4700.33
543.87,4777.33
551.8,4494.33
559.71,4406.0
567.6,4279.67
575.48,4089.33
583.34,3968.67
591.19,3879.0
599.03,3848.67
606.84,4000.33
614.65,5981.33
622.43,11779.33
630.21,4787.67
637.96,3641.33
645.71,3309.67
653.43,3192.33
661.14,3117.33
668.84,3089.33
676.52,2990.67
684.19,2974.33
691.83,3017.33
699.47,3244.33
707.09,3215.0
714.69,3018.67
722.28,2980.67
729.85,3313.0
737.41,4256.67
744.95,4833.33
752.48,5523.0
759.99,6028.33
767.49,5676.33
774.97,5193.0
782.44,5889.67
789.89,8079.33
797.32,9141.67
804.74,6435.67
812.14,4835.67
819.53,3731.0
826.9,3365.0
834.26,3746.67
841.6,4165.33
848.93,3708.33
856.24,3483.0
863.54,3396.0
870.82,3296.0
878.08,3209.67
885.33,3123.67
892.57,3183.33
899.79,3603.0
906.99,3742.0
914.18,3147.67
921.35,2752.67
928.51,2654.0
935.65,2643.67
942.77,2729.0
949.88,2723.33
956.98,2795.67
964.06,3078.0
971.12,3198.0
978.17,3941.0
985.2,6129.67
992.22,11924.0
999.22,51123.67
1006.21,29319.33
1013.18,6348.67
1020.13,5493.0
1027.07,13106.67
1034.0,15716.33
1040.91,7024.67
1047.8,4501.67
1054.68,3985.67
1061.54,4043.67
1068.39,4507.0
1075.22,4337.33
1082.04,4040.0
1088.84,3927.33
1095.62,3942.33
1102.39,3574.33
1109.15,2840.0
1115.88,2430.0
1122.61,2080.67
1129.31,2010.0
1136.01,2150.33
1142.68,2826.33
1149.34,5024.67
1155.99,8329.33
1162.62,5185.33
1169.23,4491.67
1175.83,6696.33
1182.41,10606.0
1188.98,8892.0
1195.53,9516.33
1202.07,9388.33
1208.59,6990.0
1215.1,4622.0
1221.59,3737.33
1228.06,3249.0
1234.52,2784.0
1240.96,2564.33
1247.39,2546.33
1253.8,2420.0
1260.2,2322.67
1266.58,2271.67
1272.95,2263.0
1279.3,2320.33
1285.63,2351.33
1291.95,2534.67
1298.25,2811.0
1304.54,2974.0
1310.81,3109.67
1317.07,3524.67
1323.31,3929.67
1329.54,3960.0
1335.75,3500.67
1341.94,2848.67
1348.12,2497.33
1354.29,2310.0
1360.43,2285.33
1366.57,2251.33
1372.68,2178.0
1378.78,1841.33
1384.87,1514.0
1390.94,1349.0
1397.0,1331.33
1403.04,1307.33
1409.06,1275.67
1415.07,1201.0
1421.06,1201.0
1427.04,1272.0
1433.0,1624.67
1438.94,2346.67
1444.88,3226.0
1450.79,3796.0
1456.69,2652.67
1462.57,1529.0
1468.44,1247.67
1474.3,1127.67
1480.13,1085.67
1485.95,1088.0
1491.76,1216.0
1497.55,1153.33
1503.33,1004.67
1509.09,983.33
1514.83,992.67
1520.56,1001.33
1526.27,1015.0
1531.97,1000.0
1537.65,1024.0
1543.32,1060.33
1548.97,1067.0
1554.61,1178.33
1560.22,1170.67
1565.83,1295.0
1571.42,1546.67
1576.99,2298.33
1582.55,4638.67
1588.09,3413.67
1593.62,3424.67
1599.13,6872.33
1604.63,8270.67
1610.11,4004.33
1615.57,2181.67
1621.02,1731.67
1626.45,1548.0
1631.87,1441.33
1637.27,1340.33
1642.66,1273.0
1648.03,1229.0
1653.39,1252.67
1658.73,1182.0
1664.05,1132.0
1669.36,1089.67
1674.66,1068.33
1679.94,1007.67
1685.2,907.33
1690.45,891.0
1695.68,793.67
1700.89,728.0
1706.1,679.67
1711.28,643.33
1716.45,607.33
1721.6,543.0
1726.74,556.0
1731.87,533.0
1736.97,507.67
1742.07,488.33
1747.14,500.33
1752.2,454.0
1757.25,406.33
1762.28,454.0
1767.29,426.67
1772.29,406.67
1777.28,424.33
1782.25,358.33
1787.2,355.67
1792.14,348.0
1797.06,358.67
1801.96,388.33
1806.85,366.33
1811.73,368.67
1816.59,358.0
1821.43,342.0
1826.26,334.33
1831.07,335.0
1835.87,303.33
1840.65,334.0
1845.42,302.67
1850.17,302.67
1854.9,288.67
1859.62,299.67
1864.33,302.33
1869.02,287.33
1873.69,277.0
1878.35,277.0
1882.99,291.0
1887.62,278.33
1892.23,277.0
1893.38,275.67

File: 55% Raw + 45% Buffer_data.csv
Wavenumber,Intensities
282.29,6617.67
290.7,6098.0
299.09,5710.67
307.47,5483.0
315.83,5423.33
324.18,5500.0
332.51,5479.0
340.83,5422.0
349.13,5343.0
357.42,5321.67
365.69,5376.33
373.95,5604.33
382.19,5923.33
390.42,6289.0
398.63,6618.0
406.83,7049.33
415.01,6467.0
423.18,6110.67
431.33,5765.0
439.47,5633.0
447.59,5447.0
455.7,5123.0
463.79,4903.0
471.86,4751.0
479.93,4713.33
487.97,4707.0
496.0,4619.67
504.02,4442.33
512.02,4280.0
520.01,4288.0
527.98,4371.67
535.93,4719.0
543.87,4772.67
551.8,4631.0
559.71,4479.33
567.6,4319.33
575.48,4169.0
583.34,4016.67
591.19,3936.0
599.03,3926.33
606.84,4049.67
614.65,6032.0
622.43,12031.0
630.21,4861.33
637.96,3693.33
645.71,3352.67
653.43,3245.33
661.14,3171.67
668.84,3102.0
676.52,3058.0
684.19,3018.67
691.83,3064.0
699.47,3340.0
707.09,3241.0
714.69,3040.0
722.28,3060.33
729.85,3338.67
737.41,4318.33
744.95,4981.33
752.48,5718.0
759.99,6192.67
767.49,5839.33
774.97,5297.0
782.44,6088.0
789.89,8393.67
797.32,9576.0
804.74,6673.67
812.14,4982.67
819.53,3855.0
826.9,3469.0
834.26,3825.0
841.6,4327.0
848.93,3842.33
856.24,3574.0
863.54,3488.33
870.82,3380.67
878.08,3269.0
885.33,3223.33
892.57,3273.0
899.79,3680.0
906.99,3860.0
914.18,3225.0
921.35,2801.67
928.51,2701.67
935.65,2682.67
942.77,2825.33
949.88,2836.33
956.98,2944.0
964.06,3181.67
971.12,3303.67
978.17,4047.67
985.2,6281.33
992.22,12324.0
999.22,53143.67
1006.21,30416.67
1013.18,6591.67
1020.13,5772.67
1027.07,13562.33
1034.0,16378.33
1040.91,7301.67
1047.8,4630.0
1054.68,4104.33
1061.54,4217.0
1068.39,4665.33
1075.22,4481.67
1082.04,4141.0
1088.84,4012.0
1095.62,4074.0
1102.39,3686.67
1109.15,2909.67
1115.88,2573.0
1122.61,2168.0
1129.31,2120.0
1136.01,2215.0
1142.68,2915.0
1149.34,5203.0
1155.99,8503.67
1162.62,5313.0
1169.23,4599.0
1175.83,6853.33
1182.41,10841.67
1188.98,9219.67
1195.53,9933.0
1202.07,9818.67
1208.59,7181.0
1215.1,4790.33
1221.59,3900.33
1228.06,3365.33
1234.52,2889.33
1240.96,2713.67
1247.39,2634.67
1253.8,2496.0
1260.2,2415.0
1266.58,2377.0
1272.95,2388.33
1279.3,2396.33
1285.63,2437.67
1291.95,2650.0
1298.25,2871.67
1304.54,3086.67
1310.81,3209.67
1317.07,3585.67
1323.31,3990.33
1329.54,4114.33
1335.75,3643.33
1341.94,2955.0
1348.12,2587.33
1354.29,2402.33
1360.43,2414.67
1366.57,2342.67
1372.68,2237.67
1378.78,1945.0
1384.87,1588.33
1390.94,1397.0
1397.0,1402.0
1403.04,1349.33
1409.06,1335.0
1415.07,1291.0
1421.06,1268.0
1427.04,1316.33
1433.0,1707.33
1438.94,2429.0
1444.88,3332.33
1450.79,3880.67
1456.69,2762.67
1462.57,1592.0
1468.44,1283.0
1474.3,1177.0
1480.13,1131.67
1485.95,1121.33
1491.76,1227.67
1497.55,1205.0
1503.33,1053.0
1509.09,1045.33
1514.83,1044.0
1520.56,1069.33
1526.27,1059.67
1531.97,1060.67
1537.65,1062.0
1543.32,1064.67
1548.97,1107.33
1554.61,1188.0
1560.22,1179.33
1565.83,1312.67
1571.42,1592.0
1576.99,2402.33
1582.55,4731.0
1588.09,3518.33
1593.62,3555.0
1599.13,7054.33
1604.63,8508.67
1610.11,4128.67
1615.57,2236.33
1621.02,1741.67
1626.45,1593.67
1631.87,1470.33
1637.27,1384.67
1642.66,1314.67
1648.03,1231.33
1653.39,1244.0
1658.73,1201.33
1664.05,1166.0
1669.36,1111.0
1674.66,1110.0
1679.94,1031.67
1685.2,960.67
1690.45,920.33
1695.68,803.67
1700.89,761.0
1706.1,693.0
1711.28,680.0
1716.45,647.67
1721.6,592.33
1726.74,586.0
1731.87,564.33
1736.97,536.67
1742.07,540.0
1747.14,530.67
1752.2,465.33
1757.25,440.33
1762.28,482.0
1767.29,465.0
1772.29,405.0
1777.28,453.33
1782.25,402.67
1787.2,389.33
1792.14,421.33
1797.06,372.67
1801.96,412.33
1806.85,382.67
1811.73,408.67
1816.59,388.33
1821.43,367.0
1826.26,368.0
1831.07,349.0
1835.87,344.33
1840.65,331.67
1845.42,326.67
1850.17,328.0
1854.9,305.0
1859.62,316.33
1864.33,324.0
1869.02,306.33
1873.69,315.0
1878.35,284.67
1882.99,309.0
1887.62,310.0
1892.23,289.67
1893.38,295.0

File: 60% Raw + 40% Buffer_data.csv
Wavenumber,Intensities
282.29,8044.33
290.7,7372.33
299.09,6845.67
307.47,6587.67
315.83,6620.33
324.18,6666.0
332.51,6723.0
340.83,6652.33
349.13,6454.33
357.42,6386.0
365.69,6420.67
373.95,6805.67
382.19,7286.33
390.42,7826.67
398.63,8335.67
406.83,8993.33
415.01,8192.0
423.18,7419.0
431.33,6947.0
439.47,6719.0
447.59,6481.33
455.7,5997.67
463.79,5740.0
471.86,5510.67
479.93,5458.33
487.97,5438.67
496.0,5337.33
504.02,5173.0
512.02,5153.33
520.01,5103.0
527.98,5319.67
535.93,5918.0
543.87,6072.0
551.8,5743.33
559.71,5574.0
567.6,5372.33
575.48,5086.33
583.34,4922.0
591.19,4808.0
599.03,4779.0
606.84,5029.0
614.65,8226.67
622.43,17896.0
630.21,6449.67
637.96,4579.33
645.71,4029.67
653.43,3808.67
661.14,3761.33
668.84,3667.67
676.52,3606.0
684.19,3575.33
691.83,3639.67
699.47,4090.67
707.09,4001.67
714.69,3667.67
722.28,3722.0
729.85,4216.0
737.41,5737.0
744.95,6750.67
752.48,7876.0
759.99,8607.67
767.49,8115.33
774.97,7328.0
782.44,8409.33
789.89,11981.33
797.32,13757.33
804.74,9375.67
812.14,6854.33
819.53,5057.0
826.9,4477.67
834.26,5166.67
841.6,5976.33
848.93,5209.33
856.24,4800.33
863.54,4733.67
870.82,4561.33
878.08,4418.33
885.33,4337.67
892.57,4474.33
899.79,5139.67
906.99,5452.0
914.18,4467.67
921.35,3838.67
928.51,3662.33
935.65,3684.0
942.77,3845.0
949.88,3870.0
956.98,4074.0
964.06,4540.67
971.12,4628.33
978.17,5795.0
985.2,9302.33
992.22,18692.67
999.22,63620.67
1006.21,51247.67
1013.18,9821.67
1020.13,8422.67
1027.07,20521.0
1034.0,24851.67
1040.91,10924.0
1047.8,6834.33
1054.68,5996.67
1061.54,6137.33
1068.39,6861.0
1075.22,6634.67
1082.04,6144.67
1088.84,5945.67
1095.62,5985.0
1102.39,5377.67
1109.15,4209.33
1115.88,3596.67
1122.61,2999.33
1129.31,2905.67
1136.01,3101.0
1142.68,4193.0
1149.34,7831.67
1155.99,13267.67
1162.62,8025.33
1169.23,6894.67
1175.83,10470.33
1182.41,16828.0
1188.98,14087.67
1195.53,15009.0
1202.07,14781.0
1208.59,10764.67
1215.1,7076.0
1221.59,5713.0
1228.06,4861.33
1234.52,4058.33
1240.96,3805.67
1247.39,3709.33
1253.8,3567.67
1260.2,3427.67
1266.58,3380.67
1272.95,3330.0
1279.3,3391.33
1285.63,3526.0
1291.95,3806.67
1298.25,4257.67
1304.54,4553.67
1310.81,4798.0
1317.07,5358.67
1323.31,6096.67
1329.54,6214.0
1335.75,5502.67
1341.94,4387.67
1348.12,3774.33
1354.29,3531.0
1360.43,3449.0
1366.57,3436.33
1372.68,3302.0
1378.78,2741.0
1384.87,2216.33
1390.94,1903.0
1397.0,1875.67
1403.04,1848.0
1409.06,1775.33
1415.07,1718.33
1421.06,1712.33
1427.04,1793.67
1433.0,2433.67
1438.94,3640.33
1444.88,5078.67
1450.79,5994.33
1456.69,4173.67
1462.57,2254.33
1468.44,1764.33
1474.3,1613.33
1480.13,1516.0
1485.95,1541.33
1491.76,1732.67
1497.55,1677.0
1503.33,1440.33
1509.09,1418.0
1514.83,1401.0
1520.56,1399.67
1526.27,1388.33
1531.97,1361.67
1537.65,1403.67
1543.32,1443.67
1548.97,1485.67
1554.61,1561.33
1560.22,1570.33
1565.83,1772.33
1571.42,2236.33
1576.99,3557.33
1582.55,7427.0
1588.09,5324.33
1593.62,5445.67
1599.13,11275.33
1604.63,13530.67
1610.11,6318.0
1615.57,3126.0
1621.02,2334.0
1626.45,1994.33
1631.87,1799.67
1637.27,1609.67
1642.66,1549.0
1648.03,1475.33
1653.39,1408.67
1658.73,1396.0
1664.05,1337.0
1669.36,1288.33
1674.66,1284.33
1679.94,1223.67
1685.2,1147.0
1690.45,1106.33
1695.68,986.0
1700.89,948.0
1706.1,873.0
1711.28,845.67
1716.45,807.33
1721.6,767.0
1726.74,771.67
1731.87,733.0
1736.97,712.67
1742.07,697.0
1747.14,701.0
1752.2,656.67
1757.25,628.0
1762.28,626.33
1767.29,613.0
1772.29,588.67
1777.28,611.33
1782.25,572.0
1787.2,556.67
1792.14,550.67
1797.06,542.33
1801.96,567.0
1806.85,552.0
1811.73,542.67
1816.59,543.0
1821.43,514.0
1826.26,524.0
1831.07,480.67
1835.87,480.67
1840.65,497.67
1845.42,454.33
1850.17,447.0
1854.9,439.33
1859.62,442.67
1864.33,446.67
1869.02,425.67
1873.69,413.67
1878.35,409.0
1882.99,414.0
1887.62,412.33
1892.23,388.67
1893.38,397.33