Folder: Sharbel_Stuff/mAb_degraded_wasatch_plastic

Note: mAb_degraded_wasatch_plastic/70% Raw + 30% Graded Sample, 200mW, 2000ms_metadata.json
{
  "ENLIGHTEN Version": "4.1.6",
  "Measurement ID": "20250801-175145-216176-WP-01423",
  "Serial Number": "WP-01423",
  "Model": "WP-830-R-SR-LMMFC-IC",
  "Detector": "S16011-1006",
  "Label": "\"70% Raw + 30% Graded Sample, 200mW, 2000ms\"",
  "Declared Match": "",
  "Declared Score": "0",
  "Scan Averaging": "1",
  "Boxcar": "0",
  "Technique": "Raman",
  "Baseline Correction Algo": "",
  "ROI Pixel Start": "34",
  "ROI Pixel End": "1023",
  "ROI Vertical Pixel Start": "0",
  "ROI Vertical Pixel End": "63",
  "CCD C4": "0.0",
  "Slit Width": "25",
  "Cropped": "True",
  "Interpolated": "False",
  "Wavenumber Correction": "0",
  "Raman Intensity Corrected": "False",
  "Deconvolved": "False",
  "Region": "",
  "High Gain Mode": "False",
  "Laser Power mW": "200.0",
  "Electrical Dark Correction": "False",
  "Battery %": "",
  "Device ID": "<DeviceID USB USB:0x24aa:0x1000:0:6>",
  "FW Version": "10.0.0.10",
  "FPGA Version": "035-007",
  "Prefix": "enlighten",
  "Suffix": "",
  "Preset": "",
  "Session Count": "204",
  "Plugin Name": "",
  "Integration Time": "2000",
  "Timestamp": "2025-08-01 17:51:45.216176",
  "Note": "",
  "Temperature": "9.993813157576085",
  "CCD C0": "844.5479125976562",
  "CCD C1": "0.15230105817317963",
  "CCD C2": "-5.523895652004285e-06",
  "CCD C3": "-9.4122825089471e-09",
  "CCD Offset": "0",
  "CCD Gain": "1.9",
  "CCD Offset Odd": "0",
  "CCD Gain Odd": "1.9",
  "Laser Wavelength": "829.815",
  "Laser Enable": "True",
  "Laser Power %": "57.48536292935023",
  "Laser Temperature": "-95.6635622537485",
  "Pixel Count": "1024"
}

Note: mAb_degraded_wasatch_plastic/Equilibration Buffer_metadata.json
{
  "ENLIGHTEN Version": "4.1.6",
  "Measurement ID": "20250801-165114-737270-WP-01423",
  "Serial Number": "WP-01423",
  "Model": "WP-830-R-SR-LMMFC-IC",
  "Detector": "S16011-1006",
  "Label": "100% Equlibration Buffer",
  "Declared Match": "",
  "Declared Score": "0",
  "Scan Averaging": "3",
  "Boxcar": "0",
  "Technique": "",
  "Baseline Correction Algo": "",
  "ROI Pixel Start": "34",
  "ROI Pixel End": "1023",
  "ROI Vertical Pixel Start": "0",
  "ROI Vertical Pixel End": "63",
  "CCD C4": "0.0",
  "Slit Width": "25",
  "Cropped": "True",
  "Interpolated": "False",
  "Wavenumber Correction": "0",
  "Raman Intensity Corrected": "False",
  "Deconvolved": "False",
  "Region": "",
  "High Gain Mode": "False",
  "Laser Power mW": "450.0",
  "Electrical Dark Correction": "False",
  "Battery %": "",
  "Device ID": "<DeviceID USB USB:0x24aa:0x1000:0:13>",
  "FW Version": "10.0.0.10",
  "FPGA Version": "035-007",
  "Prefix": "enlighten",
  "Suffix": "",
  "Preset": "",
  "Session Count": "232",
  "Plugin Name": "",
  "Integration Time": "5000",
  "Timestamp": "2025-08-01 16:51:14.737270",
  "Note": "",
  "Temperature": "10.010850297268917",
  "CCD C0": "844.5479125976562",
  "CCD C1": "0.15230105817317963",
  "CCD C2": "-5.523895652004285e-06",
  "CCD C3": "-9.4122825089471e-09",
  "CCD Offset": "0",
  "CCD Gain": "1.9",
  "CCD Offset Odd": "0",
  "CCD Gain Odd": "1.9",
  "Laser Wavelength": "829.815185546875",
  "Laser Enable": "True",
  "Laser Power %": "99.60060763057209",
  "Laser Temperature": "-95.6635622537485",
  "Pixel Count": "1024"
}

File: 0% Raw + 100% Graded Sample, 200mW, 2000ms_data.csv
Wavenumber,Intensities
282.29,806.33
290.7,755.33
299.09,506.33
307.47,423.33
315.83,586.33
324.18,649.0
332.51,586.0
340.83,597.67
349.13,520.33
357.42,473.0
365.69,435.67
373.95,467.33
382.19,712.67
390.42,894.0
398.63,791.0
406.83,1070.67
415.01,900.67
423.18,708.0
431.33,637.67
439.47,640.0
447.59,404.67
455.7,364.33
463.79,317.67
471.86,416.0
479.93,313.67
487.97,264.33
496.0,178.0
504.02,269.67
512.02,208.33
520.01,324.33
527.98,321.67
535.93,472.33
543.87,527.67
551.8,431.33
559.71,391.67
567.6,464.67
575.48,359.67
583.34,357.0
591.19,222.33
599.03,204.67
606.84,238.33
614.65,965.33
622.43,2983.0
630.21,614.0
637.96,189.33
645.71,119.33
653.43,66.33
661.14,-41.0
668.84,27.33
676.52,29.67
684.19,150.67
691.83,59.33
699.47,77.0
707.09,-90.67
714.69,36.33
722.28,77.33
729.85,121.0
737.41,459.67
744.95,767.67
752.48,975.0
759.99,1100.33
767.49,858.0
774.97,889.67
782.44,1112.67
789.89,1752.0
797.32,2216.33
804.74,1184.67
812.14,706.0
819.53,337.0
826.9,259.33
834.26,371.67
841.6,561.67
848.93,352.0
856.24,271.67
863.54,306.67
870.82,242.0
878.08,239.33
885.33,252.33
892.57,274.33
899.79,289.67
906.99,549.33
914.18,-147.67
921.35,221.33
928.51,43.0
935.65,147.67
942.77,140.0
949.88,79.0
956.98,164.33
964.06,370.67
971.12,242.67
978.17,656.67
985.2,1282.0
992.22,3275.67
999.22,16410.0
1006.21,9217.67
1013.18,1425.67
1020.13,1058.33
1027.07,3667.0
1034.0,4465.33
1040.91,1636.0
1047.8,814.67
1054.68,552.0
1061.54,665.67
1068.39,802.67
1075.22,791.33
1082.04,606.0
1088.84,556.0
1095.62,653.33
1102.39,531.0
1109.15,275.67
1115.88,55.67
1122.61,-42.33
1129.31,-104.0
1136.01,58.0
1142.68,311.33
1149.34,949.33
1155.99,2035.0
1162.62,1044.0
1169.23,799.0
1175.83,1589.33
1182.41,3027.0
1188.98,2304.33
1195.53,2590.0
1202.07,2474.0
1208.59,1608.0
1215.1,886.33
1221.59,557.33
1228.06,411.67
1234.52,164.33
1240.96,127.0
1247.39,139.33
1253.8,108.67
1260.2,74.67
1266.58,119.33
1272.95,58.0
1279.3,132.67
1285.63,163.67
1291.95,119.0
1298.25,270.67
1304.54,418.0
1310.81,273.0
1317.07,558.67
1323.31,646.67
1329.54,707.67
1335.75,476.0
1341.94,315.0
1348.12,183.33
1354.29,145.67
1360.43,141.67
1366.57,54.33
1372.68,77.0
1378.78,4.0
1384.87,-176.33
1390.94,-185.67
1397.0,-259.0
1403.04,-340.33
1409.06,-259.33
1415.07,-135.33
1421.06,-233.67
1427.04,-221.67
1433.0,-105.0
1438.94,186.0
1444.88,495.0
1450.79,702.33
1456.69,356.33
1462.57,-158.0
1468.44,-207.33
1474.3,-305.0
1480.13,-245.33
1485.95,-302.33
1491.76,-208.33
1497.55,-236.67
1503.33,-241.33
1509.09,-274.33
1514.83,-292.67
1520.56,-283.0
1526.27,-390.33
1531.97,-312.0
1537.65,-308.67
1543.32,-381.0
1548.97,-268.67
1554.61,-249.0
1560.22,-248.33
1565.83,-156.33
1571.42,-146.0
1576.99,97.0
1582.55,873.67
1588.09,627.33
1593.62,564.33
1599.13,1813.33
1604.63,2291.33
1610.11,717.67
1615.57,123.0
1621.02,-11.0
1626.45,-93.0
1631.87,-157.33
1637.27,-287.33
1642.66,-251.0
1648.03,-254.0
1653.39,-359.33
1658.73,-249.67
1664.05,-286.33
1669.36,-215.0
1674.66,-275.67
1679.94,-326.33
1685.2,-282.67
1690.45,-457.33
1695.68,-323.0
1700.89,-340.33
1706.1,-384.33
1711.28,-370.33
1716.45,-315.33
1721.6,-360.33
1726.74,-418.0
1731.87,-398.33
1736.97,-440.67
1742.07,-429.33
1747.14,-388.0
1752.2,-386.0
1757.25,-379.0
1762.28,-502.33
1767.29,-366.33
1772.29,-365.33
1777.28,-524.0
1782.25,-356.0
1787.2,-443.67
1792.14,-447.33
1797.06,-395.67
1801.96,-438.0
1806.85,-518.33
1811.73,-437.0
1816.59,-395.0
1821.43,-473.33
1826.26,-445.33
1831.07,-424.33
1835.87,-404.0
1840.65,-476.33
1845.42,-466.0
1850.17,-373.33
1854.9,-442.67
1859.62,-460.33
1864.33,-477.67
1869.02,-433.0
1873.69,-413.33
1878.35,-378.0
1882.99,-475.33
1887.62,-498.0
1892.23,-573.33
1893.38,-382.33

File: 10% Raw + 90% Graded Sample, 200mw,2000ms_data.csv
Wavenumber,Intensities
282.29,-51.0
290.7,-38.33
299.09,-194.0
307.47,-253.67
315.83,-114.67
324.18,-47.0
332.51,-117.67
340.83,-114.0
349.13,-157.0
357.42,-186.33
365.69,-227.67
373.95,-254.0
382.19,-49.33
390.42,42.0
398.63,-148.0
406.83,36.33
415.01,-18.33
423.18,-99.33
431.33,-94.0
439.47,-87.67
447.59,-247.33
455.7,-241.67
463.79,-269.67
471.86,-142.33
479.93,-234.0
487.97,-291.0
496.0,-326.0
504.02,-268.0
512.02,-306.0
520.01,-195.67
527.98,-244.0
535.93,-149.0
543.87,-140.67
551.8,-180.33
559.71,-193.0
567.6,-101.0
575.48,-192.0
583.34,-147.0
591.19,-278.33
599.03,-290.33
606.84,-273.0
614.65,-14.0
622.43,589.67
630.21,-131.0
637.96,-301.33
645.71,-292.67
653.43,-327.0
661.14,-389.67
668.84,-323.0
676.52,-329.0
684.19,-203.0
691.83,-281.33
699.47,-316.33
707.09,-479.33
714.69,-305.33
722.28,-288.33
729.85,-297.67
737.41,-192.67
744.95,-6.67
752.48,29.67
759.99,52.33
767.49,-113.33
774.97,7.67
782.44,109.0
789.89,239.33
797.32,444.33
804.74,33.0
812.14,-77.33
819.53,-228.67
826.9,-222.0
834.26,-225.67
841.6,-129.33
848.93,-248.0
856.24,-257.67
863.54,-216.0
870.82,-243.67
878.08,-246.67
885.33,-178.33
892.57,-210.0
899.79,-318.0
906.99,-93.67
914.18,-632.33
921.35,-193.33
928.51,-314.0
935.65,-239.67
942.77,-262.67
949.88,-337.67
956.98,-284.0
964.06,-147.0
971.12,-296.67
978.17,-17.0
985.2,82.0
992.22,783.67
999.22,5160.0
1006.21,2820.0
1013.18,177.67
1020.13,7.67
1027.07,936.0
1034.0,1102.67
1040.91,213.67
1047.8,-16.67
1054.68,-173.67
1061.54,-82.0
1068.39,-49.0
1075.22,-30.0
1082.04,-126.67
1088.84,-163.0
1095.62,-80.67
1102.39,-149.0
1109.15,-221.0
1115.88,-327.67
1122.61,-348.33
1129.31,-392.33
1136.01,-264.67
1142.68,-181.0
1149.34,-33.33
1155.99,254.0
1162.62,27.67
1169.23,-64.0
1175.83,224.0
1182.41,743.67
1188.98,445.67
1195.53,593.67
1202.07,515.0
1208.59,179.67
1215.1,-2.33
1221.59,-155.33
1228.06,-187.0
1234.52,-321.33
1240.96,-310.67
1247.39,-313.67
1253.8,-298.67
1260.2,-324.33
1266.58,-260.33
1272.95,-318.0
1279.3,-252.0
1285.63,-241.33
1291.95,-320.0
1298.25,-236.33
1304.54,-140.67
1310.81,-311.67
1317.07,-132.0
1323.31,-123.0
1329.54,-81.0
1335.75,-207.67
1341.94,-211.67
1348.12,-262.0
1354.29,-267.0
1360.43,-268.0
1366.57,-352.0
1372.68,-304.33
1378.78,-289.33
1384.87,-418.33
1390.94,-385.67
1397.0,-442.0
1403.04,-520.67
1409.06,-434.33
1415.07,-288.67
1421.06,-404.0
1427.04,-417.33
1433.0,-371.67
1438.94,-263.33
1444.88,-146.33
1450.79,-81.0
1456.69,-155.0
1462.57,-407.67
1468.44,-380.67
1474.3,-450.67
1480.13,-387.0
1485.95,-444.67
1491.76,-392.0
1497.55,-387.0
1503.33,-388.0
1509.09,-413.67
1514.83,-437.67
1520.56,-415.0
1526.27,-512.0
1531.97,-433.33
1537.65,-455.33
1543.32,-532.0
1548.97,-414.33
1554.61,-401.33
1560.22,-407.0
1565.83,-344.67
1571.42,-393.0
1576.99,-356.0
1582.55,-126.0
1588.09,-61.33
1593.62,-149.67
1599.13,255.33
1604.63,404.67
1610.11,-111.33
1615.57,-269.0
1621.02,-282.0
1626.45,-320.67
1631.87,-339.67
1637.27,-449.67
1642.66,-418.33
1648.03,-415.67
1653.39,-499.67
1658.73,-392.67
1664.05,-410.0
1669.36,-372.33
1674.66,-414.33
1679.94,-445.33
1685.2,-398.67
1690.45,-549.33
1695.68,-417.67
1700.89,-426.67
1706.1,-463.0
1711.28,-448.67
1716.45,-399.33
1721.6,-436.33
1726.74,-477.67
1731.87,-444.33
1736.97,-494.0
1742.07,-483.33
1747.14,-442.67
1752.2,-450.67
1757.25,-440.67
1762.28,-565.67
1767.29,-412.0
1772.29,-418.67
1777.28,-578.33
1782.25,-418.0
1787.2,-481.0
1792.14,-497.67
1797.06,-441.33
1801.96,-487.33
1806.85,-565.0
1811.73,-484.67
1816.59,-449.33
1821.43,-501.0
1826.26,-480.0
1831.07,-454.67
1835.87,-449.67
1840.65,-520.67
1845.42,-503.67
1850.17,-415.67
1854.9,-479.67
1859.62,-486.67
1864.33,-515.0
1869.02,-475.0
1873.69,-447.67
1878.35,-409.33
1882.99,-510.0
1887.62,-515.0
1892.23,-601.0
1893.38,-414.33

File: 20% Raw + 80% Graded Sample, 200mW,2000ms_data.csv
Wavenumber,Intensities
282.29,985.67
290.7,924.0
299.09,658.0
307.47,576.0
315.83,715.67
324.18,790.67
332.51,715.33
340.83,706.33
349.13,640.67
357.42,613.33
365.69,590.0
373.95,566.33
382.19,856.0
390.42,1011.67
398.63,904.67
406.83,1161.0
415.01,1004.67
423.18,827.0
431.33,768.0
439.47,762.67
447.59,555.0
455.7,490.67
463.79,447.0
471.86,538.67
479.93,441.67
487.97,392.33
496.0,318.0
504.02,392.67
512.02,325.67
520.01,459.67
527.98,441.67
535.93,601.67
543.87,636.67
551.8,563.0
559.71,511.67
567.6,580.0
575.48,472.33
583.34,477.33
591.19,322.67
599.03,317.33
606.84,364.67
614.65,1027.67
622.43,2991.33
630.21,710.0
637.96,292.67
645.71,227.0
653.43,166.0
661.14,83.0
668.84,133.67
676.52,132.0
684.19,253.0
691.83,175.67
699.47,201.0
707.09,2.0
714.69,159.33
722.28,158.67
729.85,217.33
737.41,537.33
744.95,861.33
752.48,1039.67
759.99,1140.67
767.49,903.67
774.97,943.0
782.44,1170.0
789.89,1758.0
797.32,2189.67
804.74,1212.67
812.14,789.33
819.53,401.67
826.9,317.0
834.26,431.0
841.6,614.33
848.93,409.0
856.24,335.0
863.54,366.33
870.82,326.0
878.08,302.67
885.33,338.0
892.57,345.0
899.79,342.67
906.99,594.67
914.18,-85.33
921.35,289.33
928.51,126.33
935.65,209.67
942.77,206.0
949.88,157.33
956.98,221.67
964.06,427.67
971.12,289.67
978.17,714.67
985.2,1246.33
992.22,3140.33
999.22,15563.33
1006.21,9157.0
1013.18,1457.0
1020.13,1042.67
1027.07,3557.0
1034.0,4374.33
1040.91,1601.67
1047.8,822.67
1054.68,575.67
1061.54,684.67
1068.39,821.33
1075.22,814.0
1082.04,634.0
1088.84,567.33
1095.62,672.33
1102.39,539.67
1109.15,303.67
1115.88,97.33
1122.61,17.33
1129.31,-53.33
1136.01,92.33
1142.68,331.67
1149.34,946.33
1155.99,1977.67
1162.62,1047.67
1169.23,787.67
1175.83,1547.67
1182.41,2942.33
1188.98,2240.0
1195.53,2523.33
1202.07,2422.0
1208.59,1581.0
1215.1,885.0
1221.59,557.33
1228.06,433.0
1234.52,194.0
1240.96,167.33
1247.39,163.67
1253.8,145.33
1260.2,102.33
1266.58,144.67
1272.95,113.67
1279.3,164.33
1285.63,196.33
1291.95,152.0
1298.25,283.33
1304.54,438.0
1310.81,267.0
1317.07,560.67
1323.31,664.0
1329.54,687.33
1335.75,479.67
1341.94,323.67
1348.12,214.0
1354.29,180.0
1360.43,153.33
1366.57,53.0
1372.68,84.67
1378.78,43.0
1384.87,-163.67
1390.94,-151.0
1397.0,-220.0
1403.04,-306.67
1409.06,-233.67
1415.07,-85.0
1421.06,-197.67
1427.04,-212.0
1433.0,-93.67
1438.94,186.0
1444.88,492.67
1450.79,696.0
1456.69,348.0
1462.57,-130.33
1468.44,-180.67
1474.3,-263.0
1480.13,-216.0
1485.95,-267.0
1491.76,-178.0
1497.55,-207.33
1503.33,-216.33
1509.09,-251.67
1514.83,-279.67
1520.56,-254.33
1526.27,-370.0
1531.97,-293.67
1537.65,-285.67
1543.32,-365.0
1548.97,-255.33
1554.61,-228.67
1560.22,-214.67
1565.83,-129.67
1571.42,-134.67
1576.99,83.0
1582.55,794.0
1588.09,603.67
1593.62,504.67
1599.13,1661.33
1604.63,2160.0
1610.11,688.67
1615.57,145.0
1621.02,1.67
1626.45,-54.33
1631.87,-98.0
1637.27,-241.0
1642.66,-216.67
1648.03,-221.33
1653.39,-319.0
1658.73,-215.67
1664.05,-244.67
1669.36,-211.0
1674.66,-246.67
1679.94,-285.67
1685.2,-247.0
1690.45,-428.0
1695.68,-302.33
1700.89,-323.0
1706.1,-371.67
1711.28,-356.33
1716.45,-314.0
1721.6,-357.33
1726.74,-403.0
1731.87,-375.67
1736.97,-428.0
1742.07,-421.33
1747.14,-383.0
1752.2,-389.67
1757.25,-379.67
1762.28,-506.0
1767.29,-346.67
1772.29,-364.33
1777.28,-525.0
1782.25,-350.67
1787.2,-421.67
1792.14,-438.67
1797.06,-380.33
1801.96,-416.33
1806.85,-514.33
1811.73,-433.33
1816.59,-396.33
1821.43,-464.67
1826.26,-430.33
1831.07,-420.67
1835.87,-396.33
1840.65,-474.0
1845.42,-463.33
1850.17,-373.33
1854.9,-440.0
1859.62,-458.0
1864.33,-470.0
1869.02,-426.0
1873.69,-399.67
1878.35,-376.33
1882.99,-483.0
1887.62,-481.33
1892.23,-569.33
1893.38,-377.33

File: 30% Raw + 70% Graded Sample, 200mW, 2000ms_data.csv
Wavenumber,Intensities
282.29,1616.0
290.7,1402.0
299.09,1055.67
307.47,915.67
315.83,1130.67
324.18,1246.33
332.51,1191.67
340.83,1153.67
349.13,1015.0
357.42,945.0
365.69,943.0
373.95,1068.33
382.19,1511.67
390.42,1886.0
398.63,1941.33
406.83,2438.0
415.01,1981.67
423.18,1508.0
431.33,1269.0
439.47,1204.33
447.59,895.67
455.7,688.0
463.79,540.67
471.86,627.0
479.93,480.67
487.97,440.33
496.0,385.0
504.02,472.33
512.02,454.67
520.01,631.67
527.98,719.0
535.93,1088.0
543.87,1221.0
551.8,1062.67
559.71,972.67
567.6,972.33
575.48,811.0
583.34,752.67
591.19,579.33
599.03,576.33
606.84,734.0
614.65,2572.33
622.43,8034.33
630.21,1666.0
637.96,582.0
645.71,318.0
653.43,188.67
661.14,80.33
668.84,131.33
676.52,121.67
684.19,253.33
691.83,204.67
699.47,389.67
707.09,167.0
714.69,220.0
722.28,267.33
729.85,516.0
737.41,1443.33
744.95,2138.33
752.48,2741.67
759.99,3119.67
767.49,2718.67
774.97,2479.33
782.44,3146.67
789.89,5075.33
797.32,6154.67
804.74,3525.33
812.14,2148.67
819.53,1148.33
826.9,870.33
834.26,1222.0
841.6,1745.0
848.93,1282.33
856.24,1033.33
863.54,1075.0
870.82,988.67
878.08,939.0
885.33,985.0
892.57,1049.0
899.79,1294.67
906.99,1691.0
914.18,628.33
921.35,811.33
928.51,574.33
935.65,672.0
942.77,759.0
949.88,749.33
956.98,879.0
964.06,1269.33
971.12,1198.0
978.17,2066.33
985.2,3937.0
992.22,9431.67
999.22,45371.33
1006.21,26051.0
1013.18,4352.33
1020.13,3409.67
1027.07,10424.0
1034.0,12971.33
1040.91,4986.33
1047.8,2622.0
1054.68,2069.33
1061.54,2237.67
1068.39,2593.33
1075.22,2499.67
1082.04,2185.33
1088.84,2068.33
1095.62,2177.33
1102.39,1846.67
1109.15,1160.67
1115.88,730.33
1122.61,435.67
1129.31,330.33
1136.01,587.33
1142.68,1233.0
1149.34,3180.0
1155.99,6151.67
1162.62,3388.67
1169.23,2677.33
1175.83,4803.0
1182.41,8504.67
1188.98,6892.33
1195.53,7534.33
1202.07,7320.0
1208.59,4955.0
1215.1,2924.67
1221.59,2032.67
1228.06,1605.0
1234.52,1077.33
1240.96,953.33
1247.39,903.33
1253.8,842.67
1260.2,763.33
1266.58,783.67
1272.95,750.33
1279.3,809.33
1285.63,892.67
1291.95,998.67
1298.25,1293.67
1304.54,1562.67
1310.81,1464.33
1317.07,1966.0
1323.31,2327.33
1329.54,2437.67
1335.75,1965.67
1341.94,1419.0
1348.12,1081.0
1354.29,972.33
1360.43,922.33
1366.57,833.67
1372.68,847.0
1378.78,560.67
1384.87,192.67
1390.94,80.0
1397.0,-10.0
1403.04,-96.67
1409.06,-35.33
1415.07,80.0
1421.06,-61.0
1427.04,17.67
1433.0,378.67
1438.94,1126.33
1444.88,1973.33
1450.79,2475.33
1456.69,1447.33
1462.57,268.33
1468.44,30.0
1474.3,-104.0
1480.13,-70.67
1485.95,-102.33
1491.76,51.0
1497.55,19.0
1503.33,-81.67
1509.09,-129.0
1514.83,-172.0
1520.56,-155.67
1526.27,-243.33
1531.97,-155.33
1537.65,-175.0
1543.32,-237.33
1548.97,-114.33
1554.61,-61.67
1560.22,-16.0
1565.83,156.33
1571.42,332.67
1576.99,1111.0
1582.55,3360.67
1588.09,2334.67
1593.62,2313.0
1599.13,5984.67
1604.63,7174.33
1610.11,2732.67
1615.57,866.33
1621.02,417.67
1626.45,200.67
1631.87,76.67
1637.27,-143.33
1642.66,-154.67
1648.03,-169.0
1653.39,-277.0
1658.73,-185.0
1664.05,-221.67
1669.36,-167.33
1674.66,-197.33
1679.94,-251.67
1685.2,-208.0
1690.45,-381.0
1695.68,-254.33
1700.89,-288.67
1706.1,-333.33
1711.28,-317.0
1716.45,-276.33
1721.6,-317.0
1726.74,-359.67
1731.87,-329.0
1736.97,-368.67
1742.07,-359.0
1747.14,-329.67
1752.2,-320.67
1757.25,-325.33
1762.28,-469.67
1767.29,-299.33
1772.29,-303.33
1777.28,-481.0
1782.25,-306.67
1787.2,-392.67
1792.14,-394.0
1797.06,-332.33
1801.96,-373.33
1806.85,-460.0
1811.73,-366.0
1816.59,-335.67
1821.43,-415.33
1826.26,-395.33
1831.07,-372.33
1835.87,-358.0
1840.65,-447.33
1845.42,-427.67
1850.17,-330.33
1854.9,-413.67
1859.62,-408.33
1864.33,-442.33
1869.02,-395.33
1873.69,-374.33
1878.35,-336.0
1882.99,-442.33
1887.62,-457.0
1892.23,-539.33
1893.38,-350.67

File: 40% Raw + 60% Graded Sample, 200mw, 2000ms_data.csv
Wavenumber,Intensities
282.29,1868.0
290.7,1644.0
299.09,1291.0
307.47,1136.0
315.83,1276.0
324.18,1450.0
332.51,1431.0
340.83,1375.0
349.13,1242.0
357.42,1135.0
365.69,1168.0
373.95,1299.0
382.19,1777.0
390.42,2165.0
398.63,2232.0
406.83,2757.0
415.01,2293.0
423.18,1774.0
431.33,1541.0
439.47,1397.0
447.59,1085.0
455.7,881.0
463.79,719.0
471.86,751.0
479.93,645.0
487.97,600.0
496.0,543.0
504.02,630.0
512.02,604.0
520.01,764.0
527.98,896.0
535.93,1333.0
543.87,1458.0
551.8,1249.0
559.71,1118.0
567.6,1189.0
575.48,991.0
583.34,915.0
591.19,721.0
599.03,740.0
606.84,920.0
614.65,2912.0
622.43,8786.0
630.21,1914.0
637.96,732.0
645.71,456.0
653.43,312.0
661.14,197.0
668.84,254.0
676.52,251.0
684.19,361.0
691.83,338.0
699.47,554.0
707.09,316.0
714.69,349.0
722.28,411.0
729.85,679.0
737.41,1642.0
744.95,2369.0
752.48,3104.0
759.99,3547.0
767.49,3133.0
774.97,2833.0
782.44,3539.0
789.89,5726.0
797.32,7032.0
804.74,4074.0
812.14,2578.0
819.53,1360.0
826.9,1099.0
834.26,1465.0
841.6,1993.0
848.93,1542.0
856.24,1268.0
863.54,1276.0
870.82,1200.0
878.08,1147.0
885.33,1170.0
892.57,1219.0
899.79,1544.0
906.99,1921.0
914.18,851.0
921.35,965.0
928.51,736.0
935.65,846.0
942.77,934.0
949.88,919.0
956.98,994.0
964.06,1496.0
971.12,1427.0
978.17,2350.0
985.2,4442.0
992.22,10559.0
999.22,49959.0
1006.21,28693.0
1013.18,4853.0
1020.13,3930.0
1027.07,11604.0
1034.0,14265.0
1040.91,5596.0
1047.8,3018.0
1054.68,2305.0
1061.54,2540.0
1068.39,2916.0
1075.22,2848.0
1082.04,2525.0
1088.84,2358.0
1095.62,2491.0
1102.39,2081.0
1109.15,1344.0
1115.88,881.0
1122.61,564.0
1129.31,474.0
1136.01,702.0
1142.68,1435.0
1149.34,3527.0
1155.99,6826.0
1162.62,3687.0
1169.23,3034.0
1175.83,5342.0
1182.41,9412.0
1188.98,7650.0
1195.53,8376.0
1202.07,8117.0
1208.59,5566.0
1215.1,3307.0
1221.59,2348.0
1228.06,1857.0
1234.52,1283.0
1240.96,1147.0
1247.39,1116.0
1253.8,1017.0
1260.2,945.0
1266.58,951.0
1272.95,884.0
1279.3,963.0
1285.63,1014.0
1291.95,1219.0
1298.25,1549.0
1304.54,1731.0
1310.81,1735.0
1317.07,2233.0
1323.31,2611.0
1329.54,2798.0
1335.75,2179.0
1341.94,1614.0
1348.12,1295.0
1354.29,1143.0
1360.43,1074.0
1366.57,991.0
1372.68,1013.0
1378.78,722.0
1384.87,250.0
1390.94,179.0
1397.0,61.0
1403.04,-45.0
1409.06,31.0
1415.07,148.0
1421.06,9.0
1427.04,72.0
1433.0,460.0
1438.94,1279.0
1444.88,2191.0
1450.79,2764.0
1456.69,1682.0
1462.57,353.0
1468.44,122.0
1474.3,-34.0
1480.13,4.0
1485.95,-72.0
1491.76,156.0
1497.55,80.0
1503.33,-22.0
1509.09,-57.0
1514.83,-83.0
1520.56,-76.0
1526.27,-200.0
1531.97,-91.0
1537.65,-102.0
1543.32,-175.0
1548.97,-61.0
1554.61,0.0
1560.22,38.0
1565.83,227.0
1571.42,429.0
1576.99,1272.0
1582.55,3776.0
1588.09,2607.0
1593.62,2612.0
1599.13,6519.0
1604.63,7821.0
1610.11,3037.0
1615.57,1018.0
1621.02,505.0
1626.45,296.0
1631.87,132.0
1637.27,-80.0
1642.66,-95.0
1648.03,-132.0
1653.39,-224.0
1658.73,-122.0
1664.05,-186.0
1669.36,-133.0
1674.66,-155.0
1679.94,-182.0
1685.2,-145.0
1690.45,-327.0
1695.68,-205.0
1700.89,-232.0
1706.1,-307.0
1711.28,-281.0
1716.45,-243.0
1721.6,-284.0
1726.74,-289.0
1731.87,-281.0
1736.97,-361.0
1742.07,-327.0
1747.14,-277.0
1752.2,-296.0
1757.25,-293.0
1762.28,-444.0
1767.29,-278.0
1772.29,-277.0
1777.28,-452.0
1782.25,-277.0
1787.2,-340.0
1792.14,-359.0
1797.06,-325.0
1801.96,-353.0
1806.85,-437.0
1811.73,-342.0
1816.59,-312.0
1821.43,-399.0
1826.26,-364.0
1831.07,-357.0
1835.87,-334.0
1840.65,-418.0
1845.42,-421.0
1850.17,-300.0
1854.9,-406.0
1859.62,-406.0
1864.33,-402.0
1869.02,-372.0
1873.69,-338.0
1878.35,-304.0
1882.99,-421.0
1887.62,-452.0
1892.23,-545.0
1893.38,-327.0

File: 50% Raw + 50% Graded Sample, 200mw,2000ms_data.csv
Wavenumber,Intensities
282.29,1953.0
290.7,1709.0
299.09,1306.0
307.47,1215.0
315.83,1379.0
324.18,1541.0
332.51,1513.0
340.83,1420.0
349.13,1242.0
357.42,1230.0
365.69,1251.0
373.95,1326.0
382.19,1857.0
390.42,2187.0
398.63,2212.0
406.83,2761.0
415.01,2282.0
423.18,1812.0
431.33,1553.0
439.47,1507.0
447.59,1125.0
455.7,945.0
463.79,799.0
471.86,827.0
479.93,714.0
487.97,676.0
496.0,661.0
504.02,676.0
512.02,699.0
520.01,840.0
527.98,942.0
535.93,1356.0
543.87,1505.0
551.8,1321.0
559.71,1198.0
567.6,1192.0
575.48,1078.0
583.34,999.0
591.19,790.0
599.03,789.0
606.84,932.0
614.65,2912.0
622.43,8399.0
630.21,1923.0
637.96,732.0
645.71,505.0
653.43,386.0
661.14,282.0
668.84,330.0
676.52,323.0
684.19,422.0
691.83,376.0
699.47,585.0
707.09,391.0
714.69,459.0
722.28,452.0
729.85,713.0
737.41,1646.0
744.95,2378.0
752.48,3055.0
759.99,3444.0
767.49,3041.0
774.97,2814.0
782.44,3410.0
789.89,5593.0
797.32,6641.0
804.74,3953.0
812.14,2414.0
819.53,1411.0
826.9,1106.0
834.26,1454.0
841.6,1982.0
848.93,1519.0
856.24,1264.0
863.54,1288.0
870.82,1219.0
878.08,1139.0
885.33,1177.0
892.57,1260.0
899.79,1460.0
906.99,1952.0
914.18,862.0
921.35,991.0
928.51,774.0
935.65,903.0
942.77,949.0
949.88,908.0
956.98,1086.0
964.06,1469.0
971.12,1420.0
978.17,2320.0
985.2,4268.0
992.22,10134.0
999.22,47860.0
1006.21,27277.0
1013.18,4690.0
1020.13,3740.0
1027.07,11144.0
1034.0,13794.0
1040.91,5376.0
1047.8,2923.0
1054.68,2293.0
1061.54,2426.0
1068.39,2855.0
1075.22,2768.0
1082.04,2403.0
1088.84,2290.0
1095.62,2453.0
1102.39,2058.0
1109.15,1351.0
1115.88,892.0
1122.61,610.0
1129.31,478.0
1136.01,733.0
1142.68,1424.0
1149.34,3478.0
1155.99,6542.0
1162.62,3613.0
1169.23,2928.0
1175.83,5190.0
1182.41,8976.0
1188.98,7335.0
1195.53,8061.0
1202.07,7798.0
1208.59,5376.0
1215.1,3148.0
1221.59,2291.0
1228.06,1739.0
1234.52,1238.0
1240.96,1143.0
1247.39,1090.0
1253.8,1006.0
1260.2,896.0
1266.58,913.0
1272.95,866.0
1279.3,978.0
1285.63,1025.0
1291.95,1173.0
1298.25,1439.0
1304.54,1720.0
1310.81,1682.0
1317.07,2195.0
1323.31,2531.0
1329.54,2673.0
1335.75,2149.0
1341.94,1576.0
1348.12,1207.0
1354.29,1117.0
1360.43,1082.0
1366.57,998.0
1372.68,979.0
1378.78,706.0
1384.87,320.0
1390.94,183.0
1397.0,91.0
1403.04,8.0
1409.06,65.0
1415.07,178.0
1421.06,61.0
1427.04,121.0
1433.0,460.0
1438.94,1249.0
1444.88,2161.0
1450.79,2707.0
1456.69,1621.0
1462.57,383.0
1468.44,152.0
1474.3,-4.0
1480.13,15.0
1485.95,0.0
1491.76,149.0
1497.55,105.0
1503.33,-3.0
1509.09,-57.0
1514.83,-87.0
1520.56,-74.0
1526.27,-183.0
1531.97,-80.0
1537.65,-72.0
1543.32,-171.0
1548.97,-25.0
1554.61,21.0
1560.22,65.0
1565.83,222.0
1571.42,440.0
1576.99,1238.0
1582.55,3575.0
1588.09,2470.0
1593.62,2490.0
1599.13,6264.0
1604.63,7510.0
1610.11,2901.0
1615.57,986.0
1621.02,498.0
1626.45,290.0
1631.87,148.0
1637.27,-53.0
1642.66,-76.0
1648.03,-98.0
1653.39,-205.0
1658.73,-95.0
1664.05,-125.0
1669.36,-102.0
1674.66,-133.0
1679.94,-171.0
1685.2,-133.0
1690.45,-304.0
1695.68,-182.0
1700.89,-228.0
1706.1,-262.0
1711.28,-258.0
1716.45,-217.0
1721.6,-262.0
1726.74,-316.0
1731.87,-273.0
1736.97,-312.0
1742.07,-308.0
1747.14,-273.0
1752.2,-254.0
1757.25,-281.0
1762.28,-410.0
1767.29,-247.0
1772.29,-246.0
1777.28,-425.0
1782.25,-255.0
1787.2,-340.0
1792.14,-347.0
1797.06,-279.0
1801.96,-338.0
1806.85,-430.0
1811.73,-342.0
1816.59,-310.0
1821.43,-383.0
1826.26,-345.0
1831.07,-331.0
1835.87,-306.0
1840.65,-414.0
1845.42,-410.0
1850.17,-285.0
1854.9,-360.0
1859.62,-372.0
1864.33,-408.0
1869.02,-357.0
1873.69,-338.0
1878.35,-297.0
1882.99,-417.0
1887.62,-403.0
1892.23,-513.0
1893.38,-319.0