Folder: Sharbel_Stuff/mAb_dilution_wasatch_plastic (part 4)

File: 100% Raw Sample_data.csv
Wavenumber,Intensities
282.29,4347.0
290.7,3926.0
299.09,3690.0
307.47,3478.0
315.83,3513.0
324.18,3580.0
332.51,3611.0
340.83,3566.0
349.13,3471.0
357.42,3405.0
365.69,3489.0
373.95,3702.0
382.19,4048.0
390.42,4386.0
398.63,4735.0
406.83,5039.0
415.01,4582.0
423.18,4124.0
431.33,3819.0
439.47,3679.0
447.59,3483.0
455.7,3197.0
463.79,3138.0
471.86,2862.0
479.93,2893.0
487.97,2901.0
496.0,2848.0
504.02,2798.0
512.02,2666.0
520.01,2696.0
527.98,2802.0
535.93,3201.0
543.87,3296.0
551.8,3140.0
559.71,2979.0
567.6,2924.0
575.48,2711.0
583.34,2631.0
591.19,2544.0
599.03,2543.0
606.84,2701.0
614.65,4662.0
622.43,10650.0
630.21,3603.0
637.96,2460.0
645.71,2128.0
653.43,2020.0
661.14,2038.0
668.84,1898.0
676.52,1910.0
684.19,1861.0
691.83,1875.0
699.47,2145.0
707.09,2085.0
714.69,1894.0
722.28,1963.0
729.85,2278.0
737.41,3301.0
744.95,3907.0
752.48,4604.0
759.99,5088.0
767.49,4815.0
774.97,4317.0
782.44,5043.0
789.89,7381.0
797.32,8384.0
804.74,5608.0
812.14,3960.0
819.53,2916.0
826.9,2521.0
834.26,2862.0
841.6,3330.0
848.93,2950.0
856.24,2714.0
863.54,2628.0
870.82,2548.0
878.08,2479.0
885.33,2406.0
892.57,2551.0
899.79,3013.0
906.99,3098.0
914.18,2575.0
921.35,2176.0
928.51,2043.0
935.65,2023.0
942.77,2187.0
949.88,2157.0
956.98,2282.0
964.06,2616.0
971.12,2684.0
978.17,3447.0
985.2,5627.0
992.22,11664.0
999.22,51698.0
1006.21,29885.0
1013.18,5977.0
1020.13,5073.0
1027.07,12849.0
1034.0,15677.0
1040.91,6750.0
1047.8,4100.0
1054.68,3512.0
1061.54,3637.0
1068.39,4048.0
1075.22,3873.0
1082.04,3550.0
1088.84,3482.0
1095.62,3471.0
1102.39,3129.0
1109.15,2392.0
1115.88,2031.0
1122.61,1677.0
1129.31,1593.0
1136.01,1762.0
1142.68,2411.0
1149.34,4655.0
1155.99,7985.0
1162.62,4807.0
1169.23,4169.0
1175.83,6287.0
1182.41,10301.0
1188.98,8732.0
1195.53,9462.0
1202.07,9275.0
1208.59,6645.0
1215.1,4382.0
1221.59,3354.0
1228.06,2939.0
1234.52,2419.0
1240.96,2248.0
1247.39,2206.0
1253.8,2107.0
1260.2,2005.0
1266.58,1908.0
1272.95,1970.0
1279.3,2007.0
1285.63,2020.0
1291.95,2236.0
1298.25,2498.0
1304.54,2662.0
1310.81,2836.0
1317.07,3220.0
1323.31,3662.0
1329.54,3651.0
1335.75,3227.0
1341.94,2563.0
1348.12,2244.0
1354.29,2100.0
1360.43,2046.0
1366.57,2012.0
1372.68,1902.0
1378.78,1652.0
1384.87,1272.0
1390.94,1132.0
1397.0,1060.0
1403.04,1029.0
1409.06,988.0
1415.07,949.0
1421.06,976.0
1427.04,991.0
1433.0,1375.0
1438.94,2160.0
1444.88,3066.0
1450.79,3611.0
1456.69,2456.0
1462.57,1306.0
1468.44,1024.0
1474.3,919.0
1480.13,912.0
1485.95,816.0
1491.76,984.0
1497.55,896.0
1503.33,779.0
1509.09,721.0
1514.83,756.0
1520.56,752.0
1526.27,765.0
1531.97,759.0
1537.65,782.0
1543.32,794.0
1548.97,854.0
1554.61,896.0
1560.22,912.0
1565.83,1028.0
1571.42,1291.0
1576.99,2194.0
1582.55,4668.0
1588.09,3336.0
1593.62,3329.0
1599.13,7104.0
1604.63,8501.0
1610.11,3903.0
1615.57,1929.0
1621.02,1405.0
1626.45,1167.0
1631.87,1017.0
1637.27,964.0
1642.66,915.0
1648.03,878.0
1653.39,858.0
1658.73,831.0
1664.05,782.0
1669.36,741.0
1674.66,763.0
1679.94,744.0
1685.2,634.0
1690.45,676.0
1695.68,577.0
1700.89,569.0
1706.1,509.0
1711.28,494.0
1716.45,425.0
1721.6,498.0
1726.74,459.0
1731.87,406.0
1736.97,406.0
1742.07,387.0
1747.14,452.0
1752.2,406.0
1757.25,372.0
1762.28,353.0
1767.29,379.0
1772.29,353.0
1777.28,296.0
1782.25,330.0
1787.2,340.0
1792.14,321.0
1797.06,363.0
1801.96,292.0
1806.85,337.0
1811.73,311.0
1816.59,322.0
1821.43,311.0
1826.26,323.0
1831.07,315.0
1835.87,281.0
1840.65,296.0
1845.42,254.0
1850.17,304.0
1854.9,308.0
1859.62,285.0
1864.33,266.0
1869.02,247.0
1873.69,228.0
1878.35,250.0
1882.99,243.0
1887.62,239.0
1892.23,269.0
1893.38,224.0

File: Empty_96_well_plate_data.csv
Wavenumber,Intensities
282.29,2752.0
290.69,2585.0
299.08,2805.0
307.46,2893.0
315.83,2642.0
324.17,2600.0
332.51,2733.0
340.82,2676.0
349.13,2748.0
357.41,2752.0
365.69,2870.0
373.94,3064.0
382.19,2802.0
390.41,2654.0
398.63,3143.0
406.82,2995.0
415.01,2889.0
423.17,2878.0
431.33,2832.0
439.46,2745.0
447.59,2927.0
455.69,2870.0
463.78,2843.0
471.86,2505.0
479.92,2688.0
487.97,2794.0
496.0,2790.0
504.02,2585.0
512.02,2585.0
520.0,2338.0
527.97,2357.0
535.93,2411.0
543.87,2308.0
551.79,2395.0
559.7,2331.0
567.6,2198.0
575.48,2270.0
583.34,2171.0
591.19,2373.0
599.02,2354.0
606.84,2392.0
614.64,2574.0
622.43,3367.0
630.2,2346.0
637.96,2342.0
645.7,2209.0
653.43,2221.0
661.14,2346.0
668.84,2209.0
676.52,2168.0
684.18,1981.0
691.83,2122.0
699.47,2281.0
707.09,2532.0
714.69,2145.0
722.28,2175.0
729.85,2293.0
737.41,2384.0
744.95,2243.0
752.48,2448.0
759.99,2581.0
767.49,2794.0
774.97,2430.0
782.43,2452.0
789.88,3010.0
797.32,3086.0
804.74,2821.0
812.14,2441.0
819.53,2392.0
826.9,2308.0
834.26,2289.0
841.6,2323.0
848.93,2392.0
856.24,2373.0
863.54,2190.0
870.82,2262.0
878.08,2251.0
885.33,2168.0
892.56,2221.0
899.78,2562.0
906.99,2160.0
914.17,2953.0
921.35,2057.0
928.5,2224.0
935.64,2118.0
942.77,2187.0
949.88,2274.0
956.98,2243.0
964.05,2107.0
971.12,2380.0
978.17,2160.0
985.2,2669.0
992.22,3348.0
999.22,8770.0
1006.21,5729.0
1013.18,2680.0
1020.13,2703.0
1027.07,3542.0
1034.0,4168.0
1040.91,2843.0
1047.8,2380.0
1054.68,2441.0
1061.54,2373.0
1068.39,2418.0
1075.22,2354.0
1082.03,2399.0
1088.83,2414.0
1095.62,2266.0
1102.39,2338.0
1109.14,2168.0
1115.88,2281.0
1122.6,2179.0
1129.31,2202.0
1136.0,2076.0
1142.68,2137.0
1149.34,2570.0
1155.99,3185.0
1162.61,2576.0
1169.23,2513.0
1175.83,2680.0
1182.41,3079.0
1188.98,3090.0
1195.53,3033.0
1202.07,3166.0
1208.59,2813.0
1215.09,2426.0
1221.58,2388.0
1228.06,2285.0
1234.52,2380.0
1240.96,2247.0
1247.39,2251.0
1253.8,2224.0
1260.2,2251.0
1266.58,2160.0
1272.94,2243.0
1279.29,2137.0
1285.63,2061.0
1291.95,2281.0
1298.25,2236.0
1304.54,2141.0
1310.81,2547.0
1317.07,2297.0
1323.31,2430.0
1329.53,2380.0
1335.75,2483.0
1341.94,2217.0
1348.12,2217.0
1354.28,2152.0
1360.43,2122.0
1366.56,2331.0
1372.68,2168.0
1378.78,2069.0
1384.87,2171.0
1390.94,2084.0
1396.99,2137.0
1403.03,2262.0
1409.06,2065.0
1415.06,1826.0
1421.06,2092.0
1427.03,2019.0
1433.0,2126.0
1438.94,2187.0
1444.87,2308.0
1450.79,2327.0
1456.69,2111.0
1462.57,2095.0
1468.44,2004.0
1474.29,2095.0
1480.13,2035.0
1485.95,2019.0
1491.76,2050.0
1497.55,1962.0
1503.32,1909.0
1509.08,1944.0
1514.83,2019.0
1520.56,1944.0
1526.27,2149.0
1531.97,2035.0
1537.65,2050.0
1543.32,2168.0
1548.97,2012.0
1554.6,2095.0
1560.22,1970.0
1565.83,1947.0
1571.42,2111.0
1576.99,2346.0
1582.55,2756.0
1588.09,2194.0
1593.62,2407.0
1599.13,2885.0
1604.62,3109.0
1610.1,2517.0
1615.57,2179.0
1621.02,1951.0
1626.45,1925.0
1631.87,1898.0
1637.27,2080.0
1642.66,2065.0
1648.03,2016.0
1653.39,2122.0
1658.73,1913.0
1664.05,1955.0
1669.36,1864.0
1674.65,1978.0
1679.93,1981.0
1685.2,1833.0
1690.44,2152.0
1695.68,1921.0
1700.89,1932.0
1706.09,1970.0
1711.28,1909.0
1716.45,1807.0
1721.6,1940.0
1726.74,1981.0
1731.86,1955.0
1736.97,1962.0
1742.06,1962.0
1747.14,1928.0
1752.2,1887.0
1757.25,1875.0
1762.28,2092.0
1767.29,1833.0
1772.29,1868.0
1777.27,2069.0
1782.24,1845.0
1787.2,1951.0
1792.13,2012.0
1797.05,1852.0
1801.96,1940.0
1806.85,2118.0
1811.73,1928.0
1816.59,1860.0
1821.43,1989.0
1826.26,1962.0
1831.07,1902.0
1835.87,1833.0
1840.65,1993.0
1845.42,1974.0
1850.17,1845.0
1854.9,1951.0
1859.62,1940.0
1864.33,1962.0
1869.01,1845.0
1873.69,1845.0
1878.35,1780.0
1882.99,1955.0
1887.61,1936.0
1892.23,2084.0
1893.38,1776.0

File: Equlibration Buffer_data.csv
Wavenumber,Intensities
282.29,8186.67
290.69,7580.67
299.08,7490.67
307.46,7334.0
315.83,7007.33
324.17,6893.0
332.51,6986.0
340.82,6931.67
349.13,6892.0
357.41,6927.67
365.69,7113.67
373.94,7388.33
382.19,7284.33
390.41,7284.33
398.63,7813.67
406.82,7922.67
415.01,7665.33
423.17,7435.0
431.33,7316.33
439.46,7130.33
447.59,7248.0
455.69,7080.67
463.78,6899.67
471.86,6495.33
479.92,6640.0
487.97,6736.67
496.0,6668.0
504.02,6363.0
512.02,6216.33
520.0,5988.33
527.97,6049.0
535.93,6255.67
543.87,6196.0
551.79,6133.0
559.7,5967.0
567.6,5735.33
575.48,5701.0
583.34,5529.0
591.19,5669.33
599.02,5657.0
606.84,5674.67
614.64,6519.0
622.43,9717.0
630.2,5913.67
637.96,5423.0
645.7,5139.0
653.43,5064.33
661.14,5165.67
668.84,4990.0
676.52,4889.67
684.18,4636.67
691.83,4772.0
699.47,5011.33
707.09,5291.0
714.69,4787.33
722.28,4730.33
729.85,4952.0
737.41,5381.0
744.95,5525.33
752.48,5897.33
759.99,6229.0
767.49,6257.0
774.97,5674.67
782.43,5998.33
789.88,7346.33
797.32,7793.33
804.74,6533.67
812.14,5498.67
819.53,4989.33
826.9,4682.33
834.26,4829.0
841.6,5015.0
848.93,4877.0
856.24,4787.33
863.54,4546.67
870.82,4514.0
878.08,4439.0
885.33,4274.67
892.56,4321.67
899.78,4764.67
906.99,4434.33
914.17,4978.0
921.35,3909.0
928.5,3971.0
935.64,3835.67
942.77,3962.33
949.88,4063.33
956.98,4054.67
964.05,4006.33
971.12,4328.0
978.17,4381.33
985.2,5760.67
992.22,8676.67
999.22,28868.33
1006.21,17795.33
1013.18,5802.33
1020.13,5372.0
1027.07,9044.67
1034.0,10792.67
1040.91,6115.0
1047.8,4677.33
1054.68,4534.0
1061.54,4471.67
1068.39,4682.33
1075.22,4619.0
1082.03,4478.33
1088.83,4487.67
1095.62,4319.33
1102.39,4221.67
1109.14,3820.33
1115.88,3767.33
1122.6,3510.67
1129.31,3507.67
1136.0,3419.0
1142.68,3715.33
1149.34,4993.67
1155.99,6818.67
1162.61,5009.33
1169.23,4711.33
1175.83,5703.67
1182.41,7532.33
1188.98,6960.67
1195.53,7073.0
1202.07,7144.0
1208.59,5958.0
1215.09,4690.0
1221.58,4249.33
1228.06,3941.67
1234.52,3866.0
1240.96,3695.0
1247.39,3664.67
1253.8,3551.0
1260.2,3570.67
1266.58,3423.0
1272.94,3519.33
1279.29,3427.0
1285.63,3395.33
1291.95,3682.33
1298.25,3693.67
1304.54,3653.67
1310.81,4088.67
1317.07,3962.33
1323.31,4295.33
1329.53,4200.0
1335.75,4125.67
1341.94,3664.67
1348.12,3480.0
1354.28,3389.0
1360.43,3337.0
1366.56,3521.67
1372.68,3316.67
1378.78,3091.67
1384.87,3094.0
1390.94,2894.0
1396.99,2937.0
1403.03,3058.67
1409.06,2862.33
1415.06,2600.33
1421.06,2843.33
1427.03,2828.33
1433.0,3001.67
1438.94,3308.0
1444.87,3753.33
1450.79,3980.0
1456.69,3346.0
1462.57,2947.0
1468.44,2754.67
1474.29,2796.67
1480.13,2733.33
1485.95,2743.33
1491.76,2791.67
1497.55,2691.33
1503.32,2585.33
1509.08,2605.33
1514.83,2704.0
1520.56,2638.67
1526.27,2849.67
1531.97,2729.33
1537.65,2748.0
1543.32,2894.33
1548.97,2752.0
1554.6,2815.33
1560.22,2761.33
1565.83,2752.33
1571.42,3048.33
1576.99,3543.33
1582.55,4700.0
1588.09,3799.0
1593.62,4031.67
1599.13,5632.67
1604.62,6290.0
1610.1,4333.33
1615.57,3452.0
1621.02,3104.0
1626.45,3081.33
1631.87,3029.67
1637.27,3186.33
1642.66,3123.0
1648.03,3052.33
1653.39,3133.33
1658.73,2884.0
1664.05,2898.0
1669.36,2740.67
1674.65,2818.0
1679.93,2776.33
1685.2,2581.33
1690.44,2851.67
1695.68,2523.33
1700.89,2486.33
1706.09,2484.0
1711.28,2399.0
1716.45,2234.33
1721.6,2357.33
1726.74,2357.33
1731.86,2303.0
1736.97,2277.67
1742.06,2268.67
1747.14,2243.33
1752.2,2214.33
1757.25,2157.33
1762.28,2342.0
1767.29,2085.33
1772.29,2067.67
1777.27,2284.0
1782.24,2051.0
1787.2,2158.67
1792.13,2179.0
1797.05,2085.33
1801.96,2116.33
1806.85,2292.67
1811.73,2111.67
1816.59,2068.67
1821.43,2178.67
1826.26,2129.67
1831.07,2070.0
1835.87,2011.67
1840.65,2136.0
1845.42,2105.67
1850.17,1992.67
1854.9,2093.0
1859.62,2080.0
1864.33,2108.0
1869.01,1962.0
1873.69,1976.33
1878.35,1919.33
1882.99,2099.33
1887.61,2088.0
1892.23,2266.0
1893.38,1914.33