Folder: Sharbel_Stuff/mAb_degraded_wasatch_plastic (part 2)

File: 60% Raw + 40% Graded Sample, 200mW,2000ms_data.csv
Wavenumber,Intensities
282.29,1815.0
290.7,1595.0
299.09,1295.0
307.47,1140.0
315.83,1307.0
324.18,1412.0
332.51,1356.0
340.83,1303.0
349.13,1223.0
357.42,1165.0
365.69,1132.0
373.95,1227.0
382.19,1705.0
390.42,2058.0
398.63,2111.0
406.83,2620.0
415.01,2103.0
423.18,1625.0
431.33,1435.0
439.47,1389.0
447.59,1116.0
455.7,884.0
463.79,772.0
471.86,842.0
479.93,695.0
487.97,664.0
496.0,593.0
504.02,668.0
512.02,653.0
520.01,790.0
527.98,907.0
535.93,1253.0
543.87,1344.0
551.8,1213.0
559.71,1114.0
567.6,1147.0
575.48,965.0
583.34,923.0
591.19,752.0
599.03,740.0
606.84,837.0
614.65,2623.0
622.43,7711.0
630.21,1743.0
637.96,744.0
645.71,486.0
653.43,353.0
661.14,254.0
668.84,319.0
676.52,304.0
684.19,444.0
691.83,383.0
699.47,528.0
707.09,316.0
714.69,387.0
722.28,397.0
729.85,641.0
737.41,1513.0
744.95,2171.0
752.48,2732.0
759.99,3095.0
767.49,2711.0
774.97,2472.0
782.44,3095.0
789.89,4963.0
797.32,5984.0
804.74,3539.0
812.14,2236.0
819.53,1265.0
826.9,1032.0
834.26,1313.0
841.6,1746.0
848.93,1382.0
856.24,1135.0
863.54,1162.0
870.82,1124.0
878.08,1075.0
885.33,1079.0
892.57,1082.0
899.79,1354.0
906.99,1693.0
914.18,752.0
921.35,889.0
928.51,653.0
935.65,782.0
942.77,850.0
949.88,790.0
956.98,941.0
964.06,1359.0
971.12,1283.0
978.17,2042.0
985.2,3835.0
992.22,9003.0
999.22,42707.0
1006.21,24441.0
1013.18,4173.0
1020.13,3360.0
1027.07,9914.0
1034.0,12207.0
1040.91,4704.0
1047.8,2616.0
1054.68,2046.0
1061.54,2179.0
1068.39,2571.0
1075.22,2449.0
1082.04,2149.0
1088.84,2055.0
1095.62,2157.0
1102.39,1831.0
1109.15,1177.0
1115.88,797.0
1122.61,564.0
1129.31,425.0
1136.01,645.0
1142.68,1295.0
1149.34,3079.0
1155.99,5873.0
1162.62,3197.0
1169.23,2613.0
1175.83,4594.0
1182.41,8034.0
1188.98,6504.0
1195.53,7161.0
1202.07,6967.0
1208.59,4826.0
1215.1,2901.0
1221.59,2037.0
1228.06,1641.0
1234.52,1090.0
1240.96,984.0
1247.39,911.0
1253.8,888.0
1260.2,771.0
1266.58,833.0
1272.95,820.0
1279.3,879.0
1285.63,931.0
1291.95,1006.0
1298.25,1298.0
1304.54,1541.0
1310.81,1454.0
1317.07,1865.0
1323.31,2307.0
1329.54,2400.0
1335.75,1952.0
1341.94,1382.0
1348.12,1075.0
1354.29,946.0
1360.43,972.0
1366.57,843.0
1372.68,843.0
1378.78,619.0
1384.87,269.0
1390.94,141.0
1397.0,65.0
1403.04,-45.0
1409.06,50.0
1415.07,148.0
1421.06,26.0
1427.04,95.0
1433.0,388.0
1438.94,1086.0
1444.88,1887.0
1450.79,2396.0
1456.69,1477.0
1462.57,281.0
1468.44,103.0
1474.3,-15.0
1480.13,4.0
1485.95,-28.0
1491.76,95.0
1497.55,65.0
1503.33,-11.0
1509.09,-68.0
1514.83,-114.0
1520.56,-68.0
1526.27,-198.0
1531.97,-95.0
1537.65,-99.0
1543.32,-163.0
1548.97,-42.0
1554.61,-11.0
1560.22,50.0
1565.83,182.0
1571.42,326.0
1576.99,1063.0
1582.55,3149.0
1588.09,2216.0
1593.62,2183.0
1599.13,5475.0
1604.63,6618.0
1610.11,2589.0
1615.57,828.0
1621.02,433.0
1626.45,269.0
1631.87,106.0
1637.27,-84.0
1642.66,-95.0
1648.03,-125.0
1653.39,-220.0
1658.73,-129.0
1664.05,-160.0
1669.36,-114.0
1674.66,-155.0
1679.94,-190.0
1685.2,-156.0
1690.45,-323.0
1695.68,-201.0
1700.89,-232.0
1706.1,-296.0
1711.28,-250.0
1716.45,-228.0
1721.6,-292.0
1726.74,-312.0
1731.87,-281.0
1736.97,-319.0
1742.07,-338.0
1747.14,-281.0
1752.2,-304.0
1757.25,-289.0
1762.28,-410.0
1767.29,-243.0
1772.29,-277.0
1777.28,-425.0
1782.25,-266.0
1787.2,-351.0
1792.14,-364.0
1797.06,-302.0
1801.96,-342.0
1806.85,-418.0
1811.73,-346.0
1816.59,-327.0
1821.43,-383.0
1826.26,-376.0
1831.07,-327.0
1835.87,-330.0
1840.65,-407.0
1845.42,-399.0
1850.17,-292.0
1854.9,-372.0
1859.62,-357.0
1864.33,-413.0
1869.02,-365.0
1873.69,-341.0
1878.35,-335.0
1882.99,-402.0
1887.62,-441.0
1892.23,-517.0
1893.38,-312.0

File: 70% Raw + 30% Graded Sample, 200mW, 2000ms_data.csv
Wavenumber,Intensities
282.29,1595.0
290.7,1462.0
299.09,1124.0
307.47,991.0
315.83,1151.0
324.18,1279.0
332.51,1188.0
340.83,1200.0
349.13,1075.0
357.42,1010.0
365.69,1029.0
373.95,1083.0
382.19,1508.0
390.42,1849.0
398.63,1898.0
406.83,2256.0
415.01,1917.0
423.18,1474.0
431.33,1291.0
439.47,1233.0
447.59,953.0
455.7,752.0
463.79,668.0
471.86,763.0
479.93,611.0
487.97,562.0
496.0,517.0
504.02,604.0
512.02,547.0
520.01,722.0
527.98,775.0
535.93,1086.0
543.87,1215.0
551.8,1051.0
559.71,959.0
567.6,1010.0
575.48,847.0
583.34,771.0
591.19,668.0
599.03,634.0
606.84,753.0
614.65,2386.0
622.43,6984.0
630.21,1553.0
637.96,596.0
645.71,391.0
653.43,293.0
661.14,193.0
668.84,254.0
676.52,222.0
684.19,369.0
691.83,319.0
699.47,431.0
707.09,236.0
714.69,315.0
722.28,361.0
729.85,554.0
737.41,1300.0
744.95,1932.0
752.48,2477.0
759.99,2787.0
767.49,2457.0
774.97,2236.0
782.44,2806.0
789.89,4518.0
797.32,5471.0
804.74,3155.0
812.14,2003.0
819.53,1064.0
826.9,903.0
834.26,1143.0
841.6,1595.0
848.93,1181.0
856.24,1010.0
863.54,984.0
870.82,923.0
878.08,854.0
885.33,896.0
892.57,970.0
899.79,1141.0
906.99,1526.0
914.18,576.0
921.35,779.0
928.51,566.0
935.65,702.0
942.77,740.0
949.88,695.0
956.98,793.0
964.06,1185.0
971.12,1120.0
978.17,1815.0
985.2,3421.0
992.22,8076.0
999.22,39142.0
1006.21,22090.0
1013.18,3801.0
1020.13,2977.0
1027.07,9041.0
1034.0,11072.0
1040.91,4260.0
1047.8,2308.0
1054.68,1792.0
1061.54,1978.0
1068.39,2278.0
1075.22,2210.0
1082.04,1921.0
1088.84,1815.0
1095.62,1918.0
1102.39,1603.0
1109.15,1063.0
1115.88,680.0
1122.61,420.0
1129.31,315.0
1136.01,558.0
1142.68,1120.0
1149.34,2726.0
1155.99,5245.0
1162.62,2878.0
1169.23,2354.0
1175.83,4112.0
1182.41,7305.0
1188.98,5847.0
1195.53,6481.0
1202.07,6359.0
1208.59,4366.0
1215.1,2521.0
1221.59,1805.0
1228.06,1405.0
1234.52,930.0
1240.96,828.0
1247.39,782.0
1253.8,706.0
1260.2,668.0
1266.58,727.0
1272.95,664.0
1279.3,720.0
1285.63,828.0
1291.95,911.0
1298.25,1135.0
1304.54,1340.0
1310.81,1283.0
1317.07,1705.0
1323.31,2022.0
1329.54,2142.0
1335.75,1663.0
1341.94,1211.0
1348.12,942.0
1354.29,818.0
1360.43,827.0
1366.57,744.0
1372.68,729.0
1378.78,494.0
1384.87,182.0
1390.94,84.0
1397.0,-23.0
1403.04,-95.0
1409.06,-7.0
1415.07,74.0
1421.06,-23.0
1427.04,11.0
1433.0,270.0
1438.94,945.0
1444.88,1690.0
1450.79,2138.0
1456.69,1264.0
1462.57,228.0
1468.44,53.0
1474.3,-91.0
1480.13,-41.0
1485.95,-65.0
1491.76,65.0
1497.55,6.0
1503.33,-64.0
1509.09,-121.0
1514.83,-144.0
1520.56,-117.0
1526.27,-224.0
1531.97,-160.0
1537.65,-171.0
1543.32,-224.0
1548.97,-95.0
1554.61,-57.0
1560.22,-34.0
1565.83,144.0
1571.42,246.0
1576.99,938.0
1582.55,2804.0
1588.09,1916.0
1593.62,1951.0
1599.13,4898.0
1604.63,6031.0
1610.11,2198.0
1615.57,707.0
1621.02,350.0
1626.45,174.0
1631.87,60.0
1637.27,-137.0
1642.66,-133.0
1648.03,-142.0
1653.39,-245.0
1658.73,-183.0
1664.05,-194.0
1669.36,-136.0
1674.66,-182.0
1679.94,-216.0
1685.2,-190.0
1690.45,-334.0
1695.68,-236.0
1700.89,-236.0
1706.1,-296.0
1711.28,-303.0
1716.45,-240.0
1721.6,-292.0
1726.74,-331.0
1731.87,-300.0
1736.97,-369.0
1742.07,-349.0
1747.14,-299.0
1752.2,-302.0
1757.25,-323.0
1762.28,-467.0
1767.29,-278.0
1772.29,-307.0
1777.28,-456.0
1782.25,-312.0
1787.2,-378.0
1792.14,-381.0
1797.06,-325.0
1801.96,-376.0
1806.85,-437.0
1811.73,-365.0
1816.59,-346.0
1821.43,-410.0
1826.26,-383.0
1831.07,-369.0
1835.87,-327.0
1840.65,-445.0
1845.42,-418.0
1850.17,-311.0
1854.9,-406.0
1859.62,-410.0
1864.33,-429.0
1869.02,-387.0
1873.69,-376.0
1878.35,-342.0
1882.99,-429.0
1887.62,-433.0
1892.23,-532.0
1893.38,-353.0

File: 80% Raw + 20% Graded Sample, 200mW, 3000 ms_data.csv
Wavenumber,Intensities
282.29,1762.0
290.7,1530.0
299.09,1287.0
307.47,1227.0
315.83,1352.0
324.18,1401.0
332.51,1378.0
340.83,1352.0
349.13,1249.0
357.42,1226.0
365.69,1219.0
373.95,1318.0
382.19,1641.0
390.42,1880.0
398.63,1932.0
406.83,2362.0
415.01,2008.0
423.18,1625.0
431.33,1477.0
439.47,1401.0
447.59,1184.0
455.7,1059.0
463.79,917.0
471.86,934.0
479.93,854.0
487.97,831.0
496.0,764.0
504.02,786.0
512.02,756.0
520.01,878.0
527.98,896.0
535.93,1223.0
543.87,1249.0
551.8,1154.0
559.71,1054.0
567.6,1075.0
575.48,976.0
583.34,915.0
591.19,786.0
599.03,793.0
606.84,856.0
614.65,2202.0
622.43,5984.0
630.21,1500.0
637.96,767.0
645.71,581.0
653.43,486.0
661.14,413.0
668.84,440.0
676.52,437.0
684.19,494.0
691.83,508.0
699.47,600.0
707.09,475.0
714.69,474.0
722.28,490.0
729.85,751.0
737.41,1334.0
744.95,1868.0
752.48,2329.0
759.99,2594.0
767.49,2385.0
774.97,2138.0
782.44,2616.0
789.89,4070.0
797.32,4982.0
804.74,2931.0
812.14,1913.0
819.53,1139.0
826.9,930.0
834.26,1154.0
841.6,1519.0
848.93,1192.0
856.24,1074.0
863.54,1045.0
870.82,980.0
878.08,923.0
885.33,919.0
892.57,979.0
899.79,1187.0
906.99,1439.0
914.18,726.0
921.35,813.0
928.51,645.0
935.65,732.0
942.77,778.0
949.88,748.0
956.98,850.0
964.06,1139.0
971.12,1066.0
978.17,1685.0
985.2,3090.0
992.22,7268.0
999.22,34574.0
1006.21,19512.0
1013.18,3448.0
1020.13,2761.0
1027.07,7978.0
1034.0,9861.0
1040.91,3903.0
1047.8,2092.0
1054.68,1708.0
1061.54,1758.0
1068.39,2077.0
1075.22,2032.0
1082.04,1754.0
1088.84,1701.0
1095.62,1747.0
1102.39,1474.0
1109.15,991.0
1115.88,748.0
1122.61,500.0
1129.31,417.0
1136.01,600.0
1142.68,1071.0
1149.34,2449.0
1155.99,4537.0
1162.62,2559.0
1169.23,2138.0
1175.83,3614.0
1182.41,6329.0
1188.98,5220.0
1195.53,5737.0
1202.07,5634.0
1208.59,3846.0
1215.1,2343.0
1221.59,1684.0
1228.06,1371.0
1234.52,1003.0
1240.96,874.0
1247.39,832.0
1253.8,797.0
1260.2,710.0
1266.58,738.0
1272.95,676.0
1279.3,781.0
1285.63,782.0
1291.95,866.0
1298.25,1074.0
1304.54,1242.0
1310.81,1226.0
1317.07,1519.0
1323.31,1775.0
1329.54,1887.0
1335.75,1507.0
1341.94,1109.0
1348.12,900.0
1354.29,874.0
1360.43,789.0
1366.57,744.0
1372.68,751.0
1378.78,549.0
1384.87,277.0
1390.94,205.0
1397.0,125.0
1403.04,72.0
1409.06,99.0
1415.07,163.0
1421.06,87.0
1427.04,144.0
1433.0,414.0
1438.94,896.0
1444.88,1511.0
1450.79,1872.0
1456.69,1142.0
1462.57,304.0
1468.44,167.0
1474.3,42.0
1480.13,72.0
1485.95,38.0
1491.76,183.0
1497.55,95.0
1503.33,34.0
1509.09,4.0
1514.83,27.0
1520.56,12.0
1526.27,-57.0
1531.97,19.0
1537.65,-7.0
1543.32,-23.0
1548.97,38.0
1554.61,99.0
1560.22,107.0
1565.83,220.0
1571.42,368.0
1576.99,869.0
1582.55,2458.0
1588.09,1684.0
1593.62,1701.0
1599.13,4144.0
1604.63,5057.0
1610.11,1997.0
1615.57,741.0
1621.02,391.0
1626.45,262.0
1631.87,193.0
1637.27,61.0
1642.66,76.0
1648.03,42.0
1653.39,-30.0
1658.73,30.0
1664.05,4.0
1669.36,31.0
1674.66,19.0
1679.94,-45.0
1685.2,-31.0
1690.45,-137.0
1695.68,-49.0
1700.89,-103.0
1706.1,-136.0
1711.28,-129.0
1716.45,-118.0
1721.6,-125.0
1726.74,-156.0
1731.87,-159.0
1736.97,-198.0
1742.07,-194.0
1747.14,-148.0
1752.2,-156.0
1757.25,-171.0
1762.28,-243.0
1767.29,-141.0
1772.29,-174.0
1777.28,-254.0
1782.25,-133.0
1787.2,-195.0
1792.14,-237.0
1797.06,-165.0
1801.96,-209.0
1806.85,-270.0
1811.73,-190.0
1816.59,-202.0
1821.43,-235.0
1826.26,-205.0
1831.07,-194.0
1835.87,-198.0
1840.65,-221.0
1845.42,-270.0
1850.17,-167.0
1854.9,-209.0
1859.62,-239.0
1864.33,-250.0
1869.02,-220.0
1873.69,-205.0
1878.35,-187.0
1882.99,-246.0
1887.62,-266.0
1892.23,-319.0
1893.38,-201.0

File: 90% Raw + 10% Graded Sample, 200mW_data.csv
Wavenumber,Intensities
282.29,3402.0
290.7,3091.0
299.09,2741.0
307.47,2586.0
315.83,2719.0
324.18,2737.0
332.51,2802.0
340.83,2707.0
349.13,2593.0
357.42,2532.0
365.69,2601.0
373.95,2848.0
382.19,3182.0
390.42,3535.0
398.63,3812.0
406.83,4333.0
415.01,3760.0
423.18,3315.0
431.33,2954.0
439.47,2817.0
447.59,2604.0
455.7,2373.0
463.79,2213.0
471.86,2088.0
479.93,1997.0
487.97,2054.0
496.0,2009.0
504.02,1925.0
512.02,1929.0
520.01,1994.0
527.98,2077.0
535.93,2495.0
543.87,2616.0
551.8,2464.0
559.71,2329.0
567.6,2275.0
575.48,2081.0
583.34,1918.0
591.19,1913.0
599.03,1936.0
606.84,2078.0
614.65,4091.0
622.43,10119.0
630.21,2958.0
637.96,1860.0
645.71,1523.0
653.43,1424.0
661.14,1328.0
668.84,1321.0
676.52,1272.0
684.19,1287.0
691.83,1306.0
699.47,1580.0
707.09,1568.0
714.69,1340.0
722.28,1417.0
729.85,1746.0
737.41,2758.0
744.95,3417.0
752.48,4156.0
759.99,4682.0
767.49,4374.0
774.97,3850.0
782.44,4610.0
789.89,7157.0
797.32,8315.0
804.74,5331.0
812.14,3573.0
819.53,2404.0
826.9,2065.0
834.26,2422.0
841.6,2950.0
848.93,2497.0
856.24,2304.0
863.54,2168.0
870.82,2149.0
878.08,2020.0
885.33,2016.0
892.57,2122.0
899.79,2569.0
906.99,2745.0
914.18,2153.0
921.35,1758.0
928.51,1610.0
935.65,1674.0
942.77,1771.0
949.88,1755.0
956.98,1940.0
964.06,2305.0
971.12,2354.0
978.17,3094.0
985.2,5467.0
992.22,11797.0
999.22,54174.0
1006.21,31009.0
1013.18,5939.0
1020.13,4891.0
1027.07,13176.0
1034.0,16118.0
1040.91,6766.0
1047.8,3865.0
1054.68,3259.0
1061.54,3334.0
1068.39,3843.0
1075.22,3691.0
1082.04,3288.0
1088.84,3258.0
1095.62,3273.0
1102.39,2960.0
1109.15,2156.0
1115.88,1792.0
1122.61,1377.0
1129.31,1298.0
1136.01,1435.0
1142.68,2229.0
1149.34,4472.0
1155.99,7878.0
1162.62,4617.0
1169.23,3938.0
1175.83,6223.0
1182.41,10373.0
1188.98,8776.0
1195.53,9458.0
1202.07,9389.0
1208.59,6683.0
1215.1,4192.0
1221.59,3259.0
1228.06,2670.0
1234.52,2195.0
1240.96,1975.0
1247.39,1963.0
1253.8,1839.0
1260.2,1739.0
1266.58,1691.0
1272.95,1708.0
1279.3,1730.0
1285.63,1754.0
1291.95,1948.0
1298.25,2251.0
1304.54,2434.0
1310.81,2589.0
1317.07,3038.0
1323.31,3457.0
1329.54,3527.0
1335.75,3034.0
1341.94,2388.0
1348.12,1955.0
1354.29,1895.0
1360.43,1792.0
1366.57,1818.0
1372.68,1716.0
1378.78,1428.0
1384.87,1048.0
1390.94,874.0
1397.0,817.0
1403.04,809.0
1409.06,775.0
1415.07,725.0
1421.06,790.0
1427.04,805.0
1433.0,1177.0
1438.94,2018.0
1444.88,2905.0
1450.79,3478.0
1456.69,2300.0
1462.57,1120.0
1468.44,794.0
1474.3,676.0
1480.13,680.0
1485.95,630.0
1491.76,828.0
1497.55,722.0
1503.33,574.0
1509.09,532.0
1514.83,573.0
1520.56,551.0
1526.27,580.0
1531.97,577.0
1537.65,604.0
1543.32,592.0
1548.97,668.0
1554.61,691.0
1560.22,673.0
1565.83,861.0
1571.42,1139.0
1576.99,2039.0
1582.55,4505.0
1588.09,3165.0
1593.62,3254.0
1599.13,7153.0
1604.63,8577.0
1610.11,3744.0
1615.57,1743.0
1621.02,1193.0
1626.45,932.0
1631.87,823.0
1637.27,710.0
1642.66,721.0
1648.03,631.0
1653.39,604.0
1658.73,552.0
1664.05,588.0
1669.36,570.0
1674.66,566.0
1679.94,524.0
1685.2,493.0
1690.45,490.0
1695.68,429.0
1700.89,429.0
1706.1,380.0
1711.28,354.0
1716.45,318.0
1721.6,319.0
1726.74,334.0
1731.87,315.0
1736.97,277.0
1742.07,289.0
1747.14,319.0
1752.2,296.0
1757.25,258.0
1762.28,277.0
1767.29,284.0
1772.29,247.0
1777.28,232.0
1782.25,250.0
1787.2,234.0
1792.14,245.0
1797.06,233.0
1801.96,247.0
1806.85,258.0
1811.73,250.0
1816.59,216.0
1821.43,258.0
1826.26,243.0
1831.07,243.0
1835.87,205.0
1840.65,231.0
1845.42,197.0
1850.17,236.0
1854.9,213.0
1859.62,194.0
1864.33,224.0
1869.02,156.0
1873.69,179.0
1878.35,174.0
1882.99,190.0
1887.62,167.0
1892.23,190.0
1893.38,155.0