Folder: Sharbel_Stuff/mAb_dilution_wasatch_plastic

File: 5% Raw+95% Buffer_data.csv
Wavenumber,Intensities
282.29,8651.67
290.69,8113.67
299.08,8003.67
307.46,7881.67
315.83,7559.0
324.17,7508.33
332.51,7612.33
340.82,7552.67
349.13,7520.0
357.41,7538.67
365.69,7754.0
373.94,7989.33
382.19,7847.67
390.41,7897.0
398.63,8432.33
406.82,8498.33
415.01,8272.33
423.17,8033.67
431.33,7874.0
439.46,7756.33
447.59,7841.33
455.69,7641.33
463.78,7522.67
471.86,7050.33
479.92,7245.33
487.97,7300.0
496.0,7270.67
504.02,6913.0
512.02,6782.0
520.0,6540.33
527.97,6612.33
535.93,6809.67
543.87,6753.0
551.79,6731.33
559.7,6540.0
567.6,6288.67
575.48,6256.67
583.34,6061.0
591.19,6208.67
599.02,6221.0
606.84,6239.0
614.64,7146.33
622.43,10349.67
630.2,6439.33
637.96,5921.33
645.7,5633.0
653.43,5587.33
661.14,5743.0
668.84,5497.33
676.52,5465.67
684.18,5198.0
691.83,5329.0
699.47,5574.67
707.09,5816.33
714.69,5311.67
722.28,5278.67
729.85,5460.33
737.41,5945.67
744.95,6041.33
752.48,6414.67
759.99,6789.67
767.49,6832.67
774.97,6250.67
782.43,6506.33
789.88,7937.67
797.32,8393.0
804.74,7111.0
812.14,6036.67
819.53,5492.33
826.9,5242.67
834.26,5379.67
841.6,5554.0
848.93,5431.67
856.24,5301.33
863.54,5081.0
870.82,5043.33
878.08,4930.33
885.33,4772.33
892.56,4821.33
899.78,5303.67
906.99,4984.67
914.17,5498.67
921.35,4415.33
928.5,4509.0
935.64,4338.33
942.77,4482.33
949.88,4568.33
956.98,4545.67
964.05,4538.33
971.12,4833.0
978.17,4871.0
985.2,6314.0
992.22,9263.67
999.22,29899.67
1006.21,18751.33
1013.18,6279.33
1020.13,5883.33
1027.07,9638.67
1034.0,11361.0
1040.91,6639.0
1047.8,5136.67
1054.68,5012.33
1061.54,4987.33
1068.39,5191.33
1075.22,5057.0
1082.03,4992.0
1088.83,4968.33
1095.62,4805.0
1102.39,4674.67
1109.14,4272.33
1115.88,4178.67
1122.6,3961.0
1129.31,3939.33
1136.0,3848.33
1142.68,4158.33
1149.34,5472.0
1155.99,7339.0
1162.61,5512.67
1169.23,5146.67
1175.83,6199.67
1182.41,8129.67
1188.98,7450.33
1195.53,7617.0
1202.07,7693.33
1208.59,6389.67
1215.09,5123.0
1221.58,4725.33
1228.06,4390.0
1234.52,4248.0
1240.96,4074.0
1247.39,4049.33
1253.8,3939.67
1260.2,3970.67
1266.58,3798.67
1272.94,3897.67
1279.29,3776.0
1285.63,3768.67
1291.95,4040.67
1298.25,4067.0
1304.54,4055.67
1310.81,4450.0
1317.07,4358.33
1323.31,4695.0
1329.53,4605.33
1335.75,4523.0
1341.94,4024.33
1348.12,3862.0
1354.28,3741.67
1360.43,3681.0
1366.56,3863.67
1372.68,3657.0
1378.78,3454.67
1384.87,3408.67
1390.94,3223.0
1396.99,3264.67
1403.03,3375.0
1409.06,3158.33
1415.06,2910.67
1421.06,3129.67
1427.03,3132.0
1433.0,3315.0
1438.94,3636.67
1444.87,4063.33
1450.79,4316.67
1456.69,3668.33
1462.57,3228.33
1468.44,3026.0
1474.29,3073.33
1480.13,2992.67
1485.95,3003.0
1491.76,3054.67
1497.55,2927.67
1503.32,2829.67
1509.08,2867.67
1514.83,2918.33
1520.56,2861.0
1526.27,3045.67
1531.97,2949.33
1537.65,2961.0
1543.32,3103.0
1548.97,2951.0
1554.6,3027.0
1560.22,2971.33
1565.83,2957.0
1571.42,3219.33
1576.99,3730.67
1582.55,4939.0
1588.09,3992.67
1593.62,4248.33
1599.13,5870.67
1604.62,6636.33
1610.1,4552.0
1615.57,3601.67
1621.02,3267.33
1626.45,3214.0
1631.87,3179.0
1637.27,3324.33
1642.66,3244.67
1648.03,3158.33
1653.39,3284.0
1658.73,3001.33
1664.05,3028.33
1669.36,2857.0
1674.65,2938.33
1679.93,2881.0
1685.2,2681.33
1690.44,2963.33
1695.68,2647.33
1700.89,2627.0
1706.09,2596.0
1711.28,2540.67
1716.45,2397.0
1721.6,2477.67
1726.74,2481.33
1731.86,2426.0
1736.97,2403.0
1742.06,2401.67
1747.14,2352.0
1752.2,2337.33
1757.25,2287.67
1762.28,2477.67
1767.29,2206.67
1772.29,2194.33
1777.27,2399.33
1782.24,2185.33
1787.2,2253.33
1792.13,2290.33
1797.05,2190.33
1801.96,2222.0
1806.85,2396.67
1811.73,2210.67
1816.59,2171.33
1821.43,2261.33
1826.26,2242.0
1831.07,2172.67
1835.87,2120.67
1840.65,2234.33
1845.42,2209.33
1850.17,2100.33
1854.9,2209.33
1859.62,2171.33
1864.33,2209.0
1869.01,2080.33
1873.69,2067.33
1878.35,2017.0
1882.99,2192.67
1887.61,2168.67
1892.23,2350.0
1893.38,1996.67

File: 10% Raw+ 90% Buffer_data.csv
Wavenumber,Intensities
282.29,9031.67
290.69,8457.67
299.08,8323.67
307.46,8209.0
315.83,7926.0
324.17,7782.0
332.51,7903.33
340.82,7813.33
349.13,7827.67
357.41,7811.0
365.69,8034.67
373.94,8294.33
382.19,8236.33
390.41,8300.67
398.63,8898.0
406.82,8998.0
415.01,8648.33
423.17,8395.67
431.33,8169.67
439.46,8021.67
447.59,8119.67
455.69,7908.67
463.78,7772.0
471.86,7269.33
479.92,7418.67
487.97,7485.67
496.0,7441.67
504.02,7150.0
512.02,6977.33
520.0,6775.67
527.97,6871.33
535.93,7044.0
543.87,7064.67
551.79,7037.67
559.7,6803.67
567.6,6570.0
575.48,6499.67
583.34,6279.67
591.19,6444.33
599.02,6370.67
606.84,6427.33
614.64,7642.67
622.43,11647.0
630.2,6775.67
637.96,6135.0
645.7,5831.67
653.43,5745.67
661.14,5813.0
668.84,5644.0
676.52,5554.67
684.18,5311.33
691.83,5464.33
699.47,5691.0
707.09,5978.33
714.69,5399.67
722.28,5435.33
729.85,5673.0
737.41,6284.67
744.95,6432.67
752.48,6969.0
759.99,7382.0
767.49,7331.33
774.97,6701.33
782.43,7093.33
789.88,8715.0
797.32,9385.33
804.74,7719.67
812.14,6439.0
819.53,5726.67
826.9,5431.33
834.26,5643.0
841.6,5902.33
848.93,5722.0
856.24,5560.0
863.54,5316.33
870.82,5305.33
878.08,5198.33
885.33,5002.33
892.56,5059.67
899.78,5570.67
906.99,5285.67
914.17,5764.33
921.35,4609.0
928.5,4711.33
935.64,4539.33
942.77,4673.33
949.88,4747.0
956.98,4758.33
964.05,4784.67
971.12,5105.67
978.17,5285.0
985.2,6889.33
992.22,10610.67
999.22,36343.33
1006.21,22364.33
1013.18,7022.67
1020.13,6512.67
1027.07,11286.67
1034.0,13333.0
1040.91,7462.67
1047.8,5595.0
1054.68,5398.67
1061.54,5387.0
1068.39,5640.33
1075.22,5529.67
1082.03,5358.33
1088.83,5344.33
1095.62,5159.33
1102.39,5019.0
1109.14,4477.33
1115.88,4383.67
1122.6,4121.67
1129.31,4106.67
1136.0,3998.67
1142.68,4401.33
1149.34,5996.0
1155.99,8369.0
1162.61,6060.67
1169.23,5651.67
1175.83,6901.0
1182.41,9369.0
1188.98,8508.33
1195.53,8718.33
1202.07,8787.0
1208.59,7213.67
1215.09,5591.0
1221.58,5075.67
1228.06,4624.67
1234.52,4479.67
1240.96,4307.67
1247.39,4251.67
1253.8,4139.33
1260.2,4162.0
1266.58,3980.0
1272.94,4055.67
1279.29,4005.33
1285.63,3980.67
1291.95,4244.67
1298.25,4349.33
1304.54,4325.67
1310.81,4769.67
1317.07,4740.33
1323.31,5066.0
1329.53,5035.33
1335.75,4871.0
1341.94,4288.33
1348.12,4062.33
1354.28,3962.0
1360.43,3894.0
1366.56,4028.0
1372.68,3845.67
1378.78,3587.67
1384.87,3504.0
1390.94,3300.33
1396.99,3312.0
1403.03,3434.33
1409.06,3244.67
1415.06,2968.67
1421.06,3206.67
1427.03,3222.33
1433.0,3445.67
1438.94,3853.0
1444.87,4411.33
1450.79,4731.67
1456.69,3901.0
1462.57,3371.33
1468.44,3087.67
1474.29,3125.33
1480.13,3043.33
1485.95,3062.33
1491.76,3103.0
1497.55,3019.67
1503.32,2889.0
1509.08,2925.67
1514.83,3003.67
1520.56,2913.67
1526.27,3137.0
1531.97,2983.67
1537.65,3021.0
1543.32,3174.0
1548.97,3005.33
1554.6,3073.67
1560.22,3019.67
1565.83,3026.67
1571.42,3353.33
1576.99,3928.0
1582.55,5484.67
1588.09,4349.33
1593.62,4618.67
1599.13,6766.67
1604.62,7640.0
1610.1,4979.67
1615.57,3781.33
1621.02,3370.0
1626.45,3294.0
1631.87,3219.0
1637.27,3366.33
1642.66,3278.67
1648.03,3220.67
1653.39,3319.33
1658.73,3029.0
1664.05,3058.33
1669.36,2927.33
1674.65,2977.67
1679.93,2959.33
1685.2,2729.33
1690.44,3004.0
1695.68,2689.33
1700.89,2648.67
1706.09,2643.67
1711.28,2545.33
1716.45,2410.67
1721.6,2500.0
1726.74,2509.33
1731.86,2449.67
1736.97,2437.33
1742.06,2428.33
1747.14,2404.0
1752.2,2349.67
1757.25,2308.0
1762.28,2493.67
1767.29,2230.67
1772.29,2213.0
1777.27,2405.33
1782.24,2198.0
1787.2,2289.0
1792.13,2323.0
1797.05,2223.0
1801.96,2242.33
1806.85,2418.33
1811.73,2247.0
1816.59,2189.33
1821.43,2301.67
1826.26,2250.0
1831.07,2198.0
1835.87,2136.0
1840.65,2264.67
1845.42,2200.33
1850.17,2114.33
1854.9,2197.67
1859.62,2185.33
1864.33,2229.33
1869.01,2077.0
1873.69,2080.0
1878.35,2035.67
1882.99,2203.0
1887.61,2176.67
1892.23,2363.67
1893.38,1990.33

File: 15% Raw+ 85% Buffer_data.csv
Wavenumber,Intensities
282.29,8242.33
290.69,7717.0
299.08,7554.0
307.46,7466.67
315.83,7163.0
324.17,7097.0
332.51,7247.67
340.82,7173.33
349.13,7149.0
357.41,7095.67
365.69,7281.0
373.94,7609.67
382.19,7551.67
390.41,7602.67
398.63,8259.67
406.82,8381.67
415.01,7980.67
423.17,7651.33
431.33,7470.67
439.46,7306.0
447.59,7425.0
455.69,7182.0
463.78,7036.67
471.86,6544.67
479.92,6711.33
487.97,6802.67
496.0,6762.0
504.02,6438.0
512.02,6373.0
520.0,6125.0
527.97,6236.33
535.93,6436.67
543.87,6428.0
551.79,6398.33
559.7,6159.0
567.6,5925.0
575.48,5898.67
583.34,5660.67
591.19,5854.67
599.02,5813.67
606.84,5886.0
614.64,7147.67
622.43,11404.33
630.2,6276.0
637.96,5584.67
645.7,5234.33
653.43,5208.67
661.14,5273.67
668.84,5051.0
676.52,4977.33
684.18,4785.0
691.83,4925.33
699.47,5197.33
707.09,5475.0
714.69,4899.67
722.28,4928.0
729.85,5207.33
737.41,5795.0
744.95,6026.33
752.48,6605.0
759.99,6998.33
767.49,6970.33
774.97,6327.67
782.43,6670.67
789.88,8534.67
797.32,9143.67
804.74,7426.33
812.14,6107.33
819.53,5391.0
826.9,5064.67
834.26,5300.0
841.6,5515.0
848.93,5354.33
856.24,5238.0
863.54,4983.67
870.82,4966.0
878.08,4868.67
885.33,4699.67
892.56,4755.67
899.78,5292.0
906.99,5030.33
914.17,5447.0
921.35,4314.0
928.5,4387.67
935.64,4244.33
942.77,4397.33
949.88,4453.0
956.98,4488.67
964.05,4532.0
971.12,4862.67
978.17,5049.33
985.2,6790.0
992.22,10716.67
999.22,38034.0
1006.21,22953.0
1013.18,6858.0
1020.13,6375.67
1027.07,11415.33
1034.0,13579.33
1040.91,7343.67
1047.8,5468.33
1054.68,5236.67
1061.54,5229.0
1068.39,5516.33
1075.22,5420.0
1082.03,5236.67
1088.83,5232.33
1095.62,5051.0
1102.39,4849.33
1109.14,4292.33
1115.88,4199.0
1122.6,3884.0
1129.31,3889.67
1136.0,3797.67
1142.68,4224.0
1149.34,5942.67
1155.99,8375.33
1162.61,6010.0
1169.23,5515.0
1175.83,6950.33
1182.41,9542.33
1188.98,8573.0
1195.53,8826.0
1202.07,8888.0
1208.59,7195.67
1215.09,5553.33
1221.58,4959.67
1228.06,4534.33
1234.52,4358.33
1240.96,4152.0
1247.39,4119.33
1253.8,4007.0
1260.2,4000.33
1266.58,3837.0
1272.94,3920.0
1279.29,3848.33
1285.63,3808.33
1291.95,4130.67
1298.25,4210.33
1304.54,4223.0
1310.81,4669.33
1317.07,4626.67
1323.31,5038.0
1329.53,4985.33
1335.75,4816.33
1341.94,4188.67
1348.12,3947.0
1354.28,3821.67
1360.43,3768.33
1366.56,3953.33
1372.68,3728.67
1378.78,3468.33
1384.87,3400.67
1390.94,3166.67
1396.99,3215.33
1403.03,3297.67
1409.06,3112.0
1415.06,2862.33
1421.06,3070.0
1427.03,3096.33
1433.0,3325.67
1438.94,3774.67
1444.87,4363.67
1450.79,4787.33
1456.69,3906.33
1462.57,3252.33
1468.44,2981.0
1474.29,3000.33
1480.13,2904.33
1485.95,2947.0
1491.76,3012.67
1497.55,2904.0
1503.32,2775.0
1509.08,2789.0
1514.83,2861.33
1520.56,2784.0
1526.27,3003.0
1531.97,2893.33
1537.65,2895.33
1543.32,3044.0
1548.97,2901.67
1554.6,2995.33
1560.22,2932.0
1565.83,2925.67
1571.42,3256.0
1576.99,3877.33
1582.55,5533.0
1588.09,4358.33
1593.62,4577.33
1599.13,6858.33
1604.62,7897.0
1610.1,4997.67
1615.57,3669.67
1621.02,3245.67
1626.45,3145.0
1631.87,3090.0
1637.27,3195.0
1642.66,3143.33
1648.03,3046.67
1653.39,3139.67
1658.73,2891.67
1664.05,2906.67
1669.36,2808.67
1674.65,2886.67
1679.93,2801.67
1685.2,2607.67
1690.44,2910.67
1695.68,2594.0
1700.89,2554.67
1706.09,2575.0
1711.28,2453.67
1716.45,2338.33
1721.6,2423.33
1726.74,2459.67
1731.86,2375.0
1736.97,2372.67
1742.06,2348.67
1747.14,2330.67
1752.2,2297.0
1757.25,2246.0
1762.28,2446.33
1767.29,2183.0
1772.29,2164.67
1777.27,2372.67
1782.24,2146.0
1787.2,2276.33
1792.13,2261.33
1797.05,2175.33
1801.96,2213.0
1806.85,2389.0
1811.73,2200.33
1816.59,2160.0
1821.43,2242.0
1826.26,2234.33
1831.07,2140.67
1835.87,2104.33
1840.65,2213.33
1845.42,2192.67
1850.17,2084.0
1854.9,2197.67
1859.62,2164.0
1864.33,2176.33
1869.01,2055.0
1873.69,2044.67
1878.35,2000.67
1882.99,2159.0
1887.61,2149.0
1892.23,2313.0
1893.38,1981.33

File: 20% Raw+ 80% Buffer_data.csv
Wavenumber,Intensities
282.29,7618.33
290.69,7026.67
299.08,6944.0
307.46,6865.33
315.83,6592.33
324.17,6506.0
332.51,6626.33
340.82,6506.0
349.13,6505.0
357.41,6444.0
365.69,6716.33
373.94,6935.33
382.19,6918.67
390.41,6969.0
398.63,7622.33
406.82,7722.33
415.01,7361.67
423.17,7065.67
431.33,6839.0
439.46,6689.67
447.59,6761.67
455.69,6544.33
463.78,6436.33
471.86,5973.0
479.92,6088.33
487.97,6234.0
496.0,6185.67
504.02,5854.33
512.02,5778.33
520.0,5551.0
527.97,5648.0
535.93,5871.67
543.87,5859.33
551.79,5852.67
559.7,5634.0
567.6,5404.67
575.48,5321.33
583.34,5149.33
591.19,5325.0
599.02,5285.33
606.84,5361.67
614.64,6584.33
622.43,10818.0
630.2,5784.67
637.96,5083.33
645.7,4714.0
653.43,4663.33
661.14,4815.33
668.84,4616.67
676.52,4529.33
684.18,4313.0
691.83,4447.0
699.47,4752.0
707.09,4992.33
714.69,4397.67
722.28,4430.33
729.85,4746.67
737.41,5386.0
744.95,5562.0
752.48,6069.67
759.99,6469.67
767.49,6492.0
774.97,5836.67
782.43,6198.67
789.88,8022.33
797.32,8628.67
804.74,6944.0
812.14,5639.0
819.53,4938.0
826.9,4628.0
834.26,4838.33
841.6,5088.67
848.93,4939.33
856.24,4781.0
863.54,4543.33
870.82,4530.33
878.08,4453.33
885.33,4301.67
892.56,4363.33
899.78,4917.67
906.99,4615.0
914.17,5069.67
921.35,3945.33
928.5,4037.0
935.64,3877.0
942.77,4025.33
949.88,4134.0
956.98,4139.33
964.05,4188.67
971.12,4484.67
978.17,4640.67
985.2,6349.0
992.22,10286.33
999.22,37056.67
1006.21,22330.33
1013.18,6501.0
1020.13,5964.67
1027.07,10923.33
1034.0,13124.0
1040.91,7009.67
1047.8,5123.67
1054.68,4878.33
1061.54,4889.67
1068.39,5145.33
1075.22,5037.33
1082.03,4907.33
1088.83,4874.67
1095.62,4697.33
1102.39,4540.67
1109.14,4012.67
1115.88,3868.67
1122.6,3596.67
1129.31,3561.0
1136.0,3503.67
1142.68,3918.0
1149.34,5635.33
1155.99,8059.0
1162.61,5668.33
1169.23,5197.33
1175.83,6593.67
1182.41,9137.33
1188.98,8172.67
1195.53,8449.0
1202.07,8513.33
1208.59,6883.33
1215.09,5202.33
1221.58,4655.67
1228.06,4224.0
1234.52,4091.33
1240.96,3897.67
1247.39,3818.0
1253.8,3725.33
1260.2,3704.0
1266.58,3571.0
1272.94,3620.67
1279.29,3572.33
1285.63,3582.33
1291.95,3868.67
1298.25,3952.0
1304.54,3917.67
1310.81,4415.33
1317.07,4375.0
1323.31,4771.33
1329.53,4708.67
1335.75,4549.33
1341.94,3939.33
1348.12,3702.67
1354.28,3585.0
1360.43,3525.33
1366.56,3718.0
1372.68,3486.0
1378.78,3227.67
1384.87,3116.67
1390.94,2920.67
1396.99,3000.33
1403.03,3096.67
1409.06,2880.33
1415.06,2617.33
1421.06,2870.67
1427.03,2871.33
1433.0,3123.33
1438.94,3568.67
1444.87,4110.33
1450.79,4511.67
1456.69,3654.33
1462.57,3064.67
1468.44,2794.0
1474.29,2818.0
1480.13,2743.33
1485.95,2734.33
1491.76,2831.0
1497.55,2715.67
1503.32,2575.0
1509.08,2585.33
1514.83,2669.0
1520.56,2622.0
1526.27,2820.33
1531.97,2716.33
1537.65,2720.67
1543.32,2878.67
1548.97,2704.0
1554.6,2813.0
1560.22,2766.0
1565.83,2747.0
1571.42,3086.33
1576.99,3706.67
1582.55,5319.0
1588.09,4147.0
1593.62,4400.0
1599.13,6697.33
1604.62,7660.33
1610.1,4796.0
1615.57,3534.33
1621.02,3099.33
1626.45,3004.0
1631.87,2933.33
1637.27,3047.33
1642.66,2983.67
1648.03,2902.67
1653.39,2998.0
1658.73,2749.33
1664.05,2787.0
1669.36,2645.67
1674.65,2734.67
1679.93,2668.67
1685.2,2471.0
1690.44,2763.33
1695.68,2434.33
1700.89,2448.33
1706.09,2435.67
1711.28,2367.67
1716.45,2208.33
1721.6,2332.0
1726.74,2351.0
1731.86,2266.33
1736.97,2252.33
1742.06,2260.0
1747.14,2231.0
1752.2,2194.0
1757.25,2150.33
1762.28,2347.33
1767.29,2074.0
1772.29,2067.67
1777.27,2291.67
1782.24,2073.67
1787.2,2171.67
1792.13,2183.0
1797.05,2091.67
1801.96,2131.0
1806.85,2308.0
1811.73,2132.0
1816.59,2082.67
1821.43,2172.67
1826.26,2138.33
1831.07,2081.33
1835.87,2014.33
1840.65,2132.0
1845.42,2132.0
1850.17,2011.67
1854.9,2134.67
1859.62,2092.0
1864.33,2114.67
1869.01,1986.67
1873.69,1984.0
1878.35,1917.0
1882.99,2104.33
1887.61,2105.67
1892.23,2275.0
1893.38,1904.33

File: 25% Raw+75% Buffer_data.csv
Wavenumber,Intensities
282.29,7398.33
290.69,6813.67
299.08,6809.67
307.46,6673.0
315.83,6385.67
324.17,6328.0
332.51,6466.67
340.82,6403.0
349.13,6372.0
357.41,6317.33
365.69,6482.0
373.94,6821.33
382.19,6759.67
390.41,6796.0
398.63,7456.67
406.82,7563.0
415.01,7222.67
423.17,6907.33
431.33,6654.33
439.46,6540.33
447.59,6607.33
455.69,6404.67
463.78,6260.67
471.86,5816.33
479.92,5973.33
487.97,6041.67
496.0,6060.33
504.02,5725.33
512.02,5681.0
520.0,5414.0
527.97,5507.33
535.93,5752.0
543.87,5749.33
551.79,5702.33
559.7,5471.33
567.6,5259.67
575.48,5226.33
583.34,5040.0
591.19,5193.67
599.02,5159.0
606.84,5276.0
614.64,6561.0
622.43,10819.33
630.2,5678.33
637.96,4973.33
645.7,4612.67
653.43,4589.67
661.14,4677.0
668.84,4504.0
676.52,4433.0
684.18,4226.67
691.83,4349.67
699.47,4647.33
707.09,4903.67
714.69,4349.33
722.28,4387.67
729.85,4656.0
737.41,5259.67
744.95,5492.33
752.48,6039.33
759.99,6441.67
767.49,6468.33
774.97,5800.0
782.43,6200.0
789.88,7988.0
797.32,8586.0
804.74,6907.33
812.14,5602.33
819.53,4924.0
826.9,4578.67
834.26,4803.0
841.6,5107.33
848.93,4898.67
856.24,4748.67
863.54,4528.0
870.82,4542.0
878.08,4420.33
885.33,4264.33
892.56,4335.33
899.78,4912.67
906.99,4607.33
914.17,5081.0
921.35,3978.33
928.5,4022.33
935.64,3853.67
942.77,3990.0
949.88,4112.67
956.98,4108.33
964.05,4133.67
971.12,4508.67
978.17,4640.33
985.2,6360.33
992.22,10267.33
999.22,37412.67
1006.21,22390.67
1013.18,6527.67
1020.13,6026.33
1027.07,11040.33
1034.0,13185.33
1040.91,7008.67
1047.8,5131.67
1054.68,4921.67
1061.54,4920.0
1068.39,5174.33
1075.22,5068.33
1082.03,4910.33
1088.83,4870.67
1095.62,4718.67
1102.39,4561.0
1109.14,4005.33
1115.88,3885.67
1122.6,3619.0
1129.31,3586.33
1136.0,3509.0
1142.68,3938.33
1149.34,5597.33
1155.99,8044.0
1162.61,5659.67
1169.23,5221.0
1175.83,6622.0
1182.41,9269.0
1188.98,8305.67
1195.53,8512.33
1202.07,8584.0
1208.59,6902.0
1215.09,5246.67
1221.58,4672.67
1228.06,4278.67
1234.52,4062.33
1240.96,3886.33
1247.39,3837.0
1253.8,3744.33
1260.2,3737.0
1266.58,3569.0
1272.94,3668.33
1279.29,3599.67
1285.63,3594.0
1291.95,3889.0
1298.25,3988.67
1304.54,3957.0
1310.81,4429.0
1317.07,4411.67
1323.31,4806.33
1329.53,4744.33
1335.75,4577.0
1341.94,3970.0
1348.12,3716.67
1354.28,3614.33
1360.43,3552.33
1366.56,3735.67
1372.68,3510.0
1378.78,3257.33
1384.87,3138.67
1390.94,2957.0
1396.99,2989.0
1403.03,3099.0
1409.06,2898.0
1415.06,2618.33
1421.06,2867.33
1427.03,2880.0
1433.0,3142.0
1438.94,3568.67
1444.87,4223.33
1450.79,4556.33
1456.69,3669.67
1462.57,3066.33
1468.44,2788.33
1474.29,2834.67
1480.13,2737.0
1485.95,2765.0
1491.76,2823.33
1497.55,2718.0
1503.32,2586.33
1509.08,2603.0
1514.83,2674.0
1520.56,2632.33
1526.27,2830.0
1531.97,2706.33
1537.65,2727.0
1543.32,2889.0
1548.97,2738.33
1554.6,2801.33
1560.22,2761.0
1565.83,2753.33
1571.42,3067.33
1576.99,3729.33
1582.55,5401.0
1588.09,4198.67
1593.62,4439.33
1599.13,6803.33
1604.62,7753.0
1610.1,4826.67
1615.57,3488.0
1621.02,3056.0
1626.45,2970.0
1631.87,2884.0
1637.27,2997.67
1642.66,2933.0
1648.03,2872.67
1653.39,2967.33
1658.73,2716.67
1664.05,2745.33
1669.36,2624.33
1674.65,2704.0
1679.93,2660.0
1685.2,2475.0
1690.44,2754.67
1695.68,2446.0
1700.89,2424.67
1706.09,2424.67
1711.28,2346.67
1716.45,2215.0
1721.6,2296.67
1726.74,2346.0
1731.86,2273.67
1736.97,2256.0
1742.06,2247.33
1747.14,2237.33
1752.2,2189.33
1757.25,2144.67
1762.28,2363.67
1767.29,2082.67
1772.29,2098.0
1777.27,2291.67
1782.24,2057.67
1787.2,2163.67
1792.13,2224.67
1797.05,2110.67
1801.96,2143.33
1806.85,2306.67
1811.73,2131.0
1816.59,2074.0
1821.43,2178.0
1826.26,2162.0
1831.07,2078.67
1835.87,2022.0
1840.65,2156.0
1845.42,2117.0
1850.17,2021.67
1854.9,2117.33
1859.62,2104.33
1864.33,2132.33
1869.01,1981.33
1873.69,1974.0
1878.35,1951.0
1882.99,2118.33
1887.61,2097.0
1892.23,2289.0
1893.38,1929.67

File: 30% Raw+ 70% Buffer_data.csv
Wavenumber,Intensities
282.29,5686.67
290.7,5253.67
299.09,4922.0
307.47,4747.67
315.83,4694.0
324.18,4671.0
332.51,4703.0
340.83,4653.67
349.13,4605.67
357.42,4566.67
365.69,4633.33
373.95,4859.0
382.19,5067.67
390.42,5315.33
398.63,5686.67
406.83,5986.0
415.01,5588.0
423.18,5164.67
431.33,4967.67
439.47,4874.0
447.59,4746.33
455.7,4447.33
463.79,4327.33
471.86,4178.0
479.93,4137.33
487.97,4166.67
496.0,4034.67
504.02,3825.0
512.02,3776.67
520.01,3680.67
527.98,3734.0
535.93,4067.67
543.87,4062.67
551.8,3910.67
559.71,3789.33
567.6,3678.33
575.48,3518.33
583.34,3409.33
591.19,3390.67
599.03,3371.0
606.84,3470.33
614.65,5000.33
622.43,9869.0
630.21,4111.0
637.96,3213.67
645.71,2894.33
653.43,2784.33
661.14,2747.67
668.84,2703.0
676.52,2630.0
684.19,2625.0
691.83,2607.33
699.47,2824.67
707.09,2846.67
714.69,2627.33
722.28,2646.67
729.85,2858.0
737.41,3636.33
744.95,4100.33
752.48,4684.33
759.99,4985.33
767.49,4778.33
774.97,4384.33
782.44,4913.33
789.89,6733.33
797.32,7519.0
804.74,5390.0
812.14,4065.33
819.53,3191.67
826.9,2907.0
834.26,3158.0
841.6,3558.0
848.93,3200.67
856.24,2966.67
863.54,2900.67
870.82,2841.0
878.08,2741.0
885.33,2706.0
892.57,2732.33
899.79,3080.67
906.99,3190.33
914.18,2742.67
921.35,2349.0
928.51,2290.67
935.65,2269.67
942.77,2340.0
949.88,2350.0
956.98,2441.67
964.06,2689.67
971.12,2702.0
978.17,3298.0
985.2,5005.33
992.22,9703.33
999.22,40962.67
1006.21,24133.0
1013.18,5319.33
1020.13,4530.67
1027.07,10571.67
1034.0,12863.67
1040.91,5847.0
1047.8,3781.67
1054.68,3339.67
1061.54,3449.67
1068.39,3775.33
1075.22,3645.0
1082.04,3419.67
1088.84,3306.0
1095.62,3256.0
1102.39,3042.67
1109.15,2439.0
1115.88,2119.0
1122.61,1861.67
1129.31,1760.67
1136.01,1855.67
1142.68,2397.0
1149.34,4164.67
1155.99,6899.0
1162.62,4347.0
1169.23,3759.0
1175.83,5473.0
1182.41,8668.67
1188.98,7335.33
1195.53,7791.0
1202.07,7670.67
1208.59,5718.33
1215.1,3918.33
1221.59,3206.0
1228.06,2705.67
1234.52,2397.33
1240.96,2199.67
1247.39,2166.67
1253.8,2064.67
1260.2,2009.33
1266.58,1962.67
1272.95,1993.67
1279.3,1968.33
1285.63,2008.67
1291.95,2212.67
1298.25,2403.67
1304.54,2514.0
1310.81,2688.0
1317.07,2878.33
1323.31,3300.0
1329.54,3293.0
1335.75,3023.33
1341.94,2444.33
1348.12,2137.67
1354.29,1982.0
1360.43,1977.0
1366.57,1954.33
1372.68,1892.33
1378.78,1597.33
1384.87,1363.33
1390.94,1199.67
1397.0,1183.33
1403.04,1197.67
1409.06,1134.0
1415.07,1074.33
1421.06,1106.0
1427.04,1147.0
1433.0,1409.0
1438.94,2011.0
1444.88,2697.33
1450.79,3134.67
1456.69,2254.0
1462.57,1351.33
1468.44,1093.67
1474.3,1054.0
1480.13,986.67
1485.95,968.33
1491.76,1097.67
1497.55,1053.0
1503.33,948.0
1509.09,943.0
1514.83,932.67
1520.56,917.33
1526.27,936.0
1531.97,943.0
1537.65,951.67
1543.32,954.0
1548.97,983.33
1554.61,1058.0
1560.22,1052.67
1565.83,1144.33
1571.42,1339.33
1576.99,1966.67
1582.55,3833.33
1588.09,2841.0
1593.62,2887.0
1599.13,5627.0
1604.63,6758.67
1610.11,3343.67
1615.57,1854.67
1621.02,1498.67
1626.45,1350.67
1631.87,1258.33
1637.27,1172.0
1642.66,1152.0
1648.03,1105.0
1653.39,1069.67
1658.73,1052.0
1664.05,1022.67
1669.36,974.33
1674.66,939.33
1679.94,903.67
1685.2,837.67
1690.45,792.33
1695.68,744.0
1700.89,688.67
1706.1,662.0
1711.28,645.33
1716.45,611.33
1721.6,577.0
1726.74,580.0
1731.87,532.33
1736.97,532.67
1742.07,509.0
1747.14,477.33
1752.2,492.67
1757.25,474.33
1762.28,453.33
1767.29,434.0
1772.29,425.0
1777.28,438.0
1782.25,397.33
1787.2,412.67
1792.14,419.0
1797.06,405.33
1801.96,393.33
1806.85,396.0
1811.73,429.33
1816.59,390.0
1821.43,368.33
1826.26,380.0
1831.07,377.0
1835.87,344.33
1840.65,343.33
1845.42,339.0
1850.17,335.0
1854.9,353.33
1859.62,320.33
1864.33,353.0
1869.02,323.0
1873.69,331.67
1878.35,312.67
1882.99,335.67
1887.62,327.67
1892.23,371.0
1893.38,291.67