Folder: Sharbel_Stuff/Probe_Opt_wasatch_Powder

Note: Probe_Opt_wasatch_Powder/Milk_Powder_450mW_1000ms_3rep_metadata.json
{
  "ENLIGHTEN Version": "4.1.6",
  "Measurement ID": "20250716-105055-990694-WP-01423",
  "Serial Number": "WP-01423",
  "Model": "WP-830-R-SR-LMMFC-IC",
  "Detector": "S16011-1006",
  "Label": "Milk_Powder_450mW_1000ms_3rep",
  "Declared Match": "",
  "Declared Score": "0",
  "Scan Averaging": "3",
  "Boxcar": "0",
  "Technique": "Raman",
  "Baseline Correction Algo": "",
  "ROI Pixel Start": "34",
  "ROI Pixel End": "1023",
  "ROI Vertical Pixel Start": "0",
  "ROI Vertical Pixel End": "63",
  "CCD C4": "0.0",
  "Slit Width": "25",
  "Cropped": "True",
  "Interpolated": "False",
  "Wavenumber Correction": "0",
  "Raman Intensity Corrected": "False",
  "Deconvolved": "False",
  "Region": "",
  "High Gain Mode": "False",
  "Laser Power mW": "450.0",
  "Electrical Dark Correction": "False",
  "Battery %": "",
  "Device ID": "<DeviceID USB USB:0x24aa:0x1000:0:1>",
  "FW Version": "10.0.0.10",
  "FPGA Version": "035-007",
  "Prefix": "enlighten",
  "Suffix": "",
  "Preset": "",
  "Session Count": "2579",
  "Plugin Name": "",
  "Integration Time": "1000",
  "Timestamp": "2025-07-16 10:50:55.990694",
  "Note": "",
  "Temperature": "10.02788583696173",
  "CCD C0": "844.5479125976562",
  "CCD C1": "0.15230105817317963",
  "CCD C2": "-5.523895652004285e-06",
  "CCD C3": "-9.4122825089471e-09",
  "CCD Offset": "0",
  "CCD Gain": "1.9",
  "CCD Offset Odd": "0",
  "CCD Gain Odd": "1.9",
  "Laser Wavelength": "829.815",
  "Laser Enable": "True",
  "Laser Power %": "99.60060763057209",
  "Laser Temperature": "-95.6635622537485",
  "Pixel Count": "1024"
}

File: _data.csv
Wavenumber,Intensities
282.29,8083.4
290.7,8134.0
299.09,8270.2
307.47,8268.8
315.83,8339.6
324.18,8319.2
332.51,8493.4
340.83,8961.4
349.13,9653.6
357.42,9672.0
365.69,8894.6
373.95,8394.8
382.19,8464.8
390.42,8142.0
398.63,8265.0
406.83,8515.8
415.01,10576.0
423.18,9984.6
431.33,9385.8
439.47,9110.2
447.59,9263.0
455.7,8886.8
463.79,8565.8
471.86,8425.2
479.93,8189.0
487.97,7812.4
496.0,7609.8
504.02,7608.2
512.02,7740.4
520.01,7662.2
527.98,7438.4
535.93,7448.2
543.87,7330.4
551.8,7171.6
559.71,7084.4
567.6,7168.4
575.48,7603.6
583.34,7186.8
591.19,6978.8
599.03,6854.4
606.84,6684.2
614.65,6595.4
622.43,6730.4
630.21,6558.2
637.96,6585.4
645.71,6928.4
653.43,6719.8
661.14,6486.8
668.84,6372.0
676.52,6242.2
684.19,6200.6
691.83,6180.2
699.47,6364.4
707.09,6399.8
714.69,6337.8
722.28,6186.0
729.85,6109.0
737.41,6281.8
744.95,6976.4
752.48,7430.4
759.99,6718.2
767.49,6261.8
774.97,6028.0
782.44,5870.2
789.89,5780.8
797.32,5721.2
804.74,5673.4
812.14,5681.2
819.53,5730.0
826.9,5982.2
834.26,6164.8
841.6,6428.2
848.93,6820.0
856.24,7025.4
863.54,7006.4
870.82,7016.6
878.08,7198.8
885.33,6942.0
892.57,6797.2
899.79,6633.6
906.99,6434.2
914.18,6354.0
921.35,6280.0
928.51,6109.8
935.65,6127.2
942.77,6307.6
949.88,6393.8
956.98,6204.6
964.06,5993.4
971.12,5862.4
978.17,5871.6
985.2,5943.8
992.22,6032.4
999.22,6404.2
1006.21,6706.6
1013.18,6347.4
1020.13,6353.6
1027.07,6304.6
1034.0,6454.0
1040.91,6399.2
1047.8,6572.2
1054.68,6681.2
1061.54,6780.6
1068.39,7022.4
1075.22,7344.6
1082.04,7547.6
1088.84,7291.8
1095.62,7009.0
1102.39,6915.8
1109.15,7018.2
1115.88,7354.6
1122.61,7345.6
1129.31,6852.8
1136.01,6268.0
1142.68,5977.0
1149.34,5934.4
1155.99,5769.0
1162.62,5303.4
1169.23,4981.4
1175.83,4736.2
1182.41,4527.8
1188.98,4451.2
1195.53,4540.0
1202.07,4672.6
1208.59,4818.8
1215.1,4748.2
1221.59,4799.0
1228.06,4994.0
1234.52,5227.4
1240.96,5400.8
1247.39,5565.0
1253.8,5746.0
1260.2,5865.4
1266.58,5760.6
1272.95,5512.0
1279.3,5210.2
1285.63,4992.2
1291.95,4912.2
1298.25,4987.0
1304.54,5143.2
1310.81,5278.6
1317.07,5405.0
1323.31,5413.6
1329.54,5421.2
1335.75,5452.8
1341.94,5420.6
1348.12,5200.0
1354.29,4965.6
1360.43,4892.6
1366.57,4774.2
1372.68,4719.6
1378.78,4577.0
1384.87,4481.4
1390.94,4347.4
1397.0,4197.2
1403.04,4099.8
1409.06,4055.6
1415.07,4014.8
1421.06,4020.2
1427.04,3967.0
1433.0,3990.6
1438.94,4214.4
1444.88,4479.4
1450.79,4659.6
1456.69,4620.0
1462.57,4568.4
1468.44,4167.8
1474.3,3611.6
1480.13,3100.6
1485.95,2744.4
1491.76,2534.2
1497.55,2435.4
1503.33,2341.8
1509.09,2275.8
1514.83,2226.8
1520.56,2197.4
1526.27,2136.8
1531.97,2099.0
1537.65,2084.2
1543.32,2099.6
1548.97,2099.6
1554.61,2103.6
1560.22,2030.4
1565.83,1968.4
1571.42,1974.4
1576.99,1958.4
1582.55,1976.6
1588.09,1977.4
1593.62,1970.6
1599.13,2017.4
1604.63,2075.2
1610.11,2079.2
1615.57,2113.6
1621.02,2069.6
1626.45,1998.0
1631.87,1988.6
1637.27,2011.8
1642.66,2046.6
1648.03,2109.0
1653.39,2192.4
1658.73,2239.6
1664.05,2234.8
1669.36,2209.2
1674.66,2089.0
1679.94,1976.0
1685.2,1843.2
1690.45,1695.6
1695.68,1561.4
1700.89,1449.6
1706.1,1360.6
1711.28,1320.4
1716.45,1269.0
1721.6,1236.8
1726.74,1189.8
1731.87,1199.4
1736.97,1155.8
1742.07,1138.4
1747.14,1114.8
1752.2,1104.2
1757.25,1074.2
1762.28,1060.0
1767.29,1048.0
1772.29,1017.2
1777.28,988.0
1782.25,984.2
1787.2,966.6
1792.14,959.0
1797.06,925.0
1801.96,912.8
1806.85,903.0
1811.73,883.8
1816.59,868.8
1821.43,856.6
1826.26,854.4
1831.07,835.2
1835.87,803.4
1840.65,802.2
1845.42,781.8
1850.17,774.0
1854.9,773.2
1859.62,745.8
1864.33,738.8
1869.02,730.4
1873.69,704.6
1878.35,700.8
1882.99,701.0
1887.62,681.8
1892.23,677.0
1893.38,664.2